Folder: DataAnalysis/LSV ZFO (part 10)

File: ZFO_h300_light_reator.DTA
EXPLAIN
TAG	LSV
TITLE	LABEL	Linear Sweep Voltammetry	Test &Identifier
DATE	LABEL	7/5/2024	Date
TIME	LABEL	17:45:49	Time
NOTES	NOTES	1	&Notes...

PSTAT	PSTAT	L3FNano	Potentiostat
VINIT	POTEN	-5.00000E-001	F	&Initial E (V)
VFINAL	POTEN	6.00000E-001	F	&Final E (V)
SCANRATE	QUANT	9.99998E+000	&Scan Rate (mV/s)
STEPSIZE	QUANT	1.00000E+000	St&ep Size (mV)
IMODE	SELECTOR	0	I/E Range &Mode
IRANGE	QUANT	1.00000E+001	&Max Current (mA)
AREA	QUANT	1.00000E+000	Electrode &Area (cm^2)
ELECTRODETYPE	SELECTOR	0	Electrode Type
STRIPPING	TOGGLE	F	Used for Stripping
POLARITY	TOGGLE	F	Signal Polarity
CONDIT	TWOPARAM	F	1.50000E+001	0.00000E+000	Conditionin&g	Time(s)	E(V)
DELAY	TWOPARAM	F	3.00000E+001	0.00000E+000	Init. De&lay	Time(s)	Stab.(mV/s)
EQDELAY	QUANT	5.00000E+000	Equil. &Time (s)
IRCOMP	SELECTOR	0	IRCom&p
PFCOR	QUANT	5.00000E+001	PF Corr. (ohm)
SAMPLINGMODE	SELECTOR	0	Sampling &Mode
EOC	QUANT	0	Open Circuit (V)
PSTATMODEL	IQUANT	48	Pstat Model
PSTATSECTION	LABEL	IFC1000-07082	Pstat Section
PSTATSERIALNO	LABEL	07082	Pstat Serial Number
CTRLMODE	IQUANT	1	Control Mode
IESTAB	IQUANT	2	I/E Stability
CASPEED	IQUANT	2	Control Amp Speed
CONVENTION	IQUANT	1	Current Convention
ICHRANGE	IQUANT	2	Ich Range
ICHRANGEMODE	TOGGLE	F	Ich Auto Range
ICHOFFSETENABLE	TOGGLE	F	Ich Offset Enable
ICHOFFSET	QUANT	0	Ich Offset (V)
ICHFILTER	IQUANT	3	Ich Filter
VCHRANGE	IQUANT	2	Vch Range
VCHRANGEMODE	TOGGLE	T	Vch Auto Range
VCHOFFSETENABLE	TOGGLE	F	Vch Offset Enable
VCHOFFSET	QUANT	0	Vch Offset (V)
VCHFILTER	IQUANT	3	Vch Filter
IERANGELOWERLIMIT	IQUANT	4	I/E Range Lower Limit
IERANGEMODE	TOGGLE	T	I/E AutoRange
IERANGE	IQUANT	11	I/E Range
ACHSELECT	IQUANT	4	Ach Select
CABLEID	IQUANT	14	Cable ID
DCCALDATE	LABEL	7/3/2024	DC Calibration Date
ACCALDATE	LABEL	7/3/2024	AC Calibration Date
FRAMEWORKVERSION	QUANT	6.24	Framework Version
INSTRUMENTVERSION	LABEL	3.28	Instrument Version
CURVE	TABLE	1101
	Pt	T	Vf	Im	Vu	Sig	Ach	IERange	Over	Cycle
	#	s	V vs. Ref.	A	V	V	V	#	bits	#
	0	0.1	-5.00110E-001	-1.46991E-005	0.00000E+000	-4.99988E-001	0.00000E+000	11	...........	0
	11	1.2	-4.89199E-001	-1.56358E-005	0.00000E+000	-4.88988E-001	0.00000E+000	8	...........	0
	22	2.3	-4.78088E-001	-1.21489E-005	0.00000E+000	-4.77988E-001	0.00000E+000	8	...........	0
	33	3.4	-4.67077E-001	-9.61540E-006	0.00000E+000	-4.66987E-001	0.00000E+000	8	...........	0
	44	4.5	-4.56066E-001	-7.26947E-006	0.00000E+000	-4.55987E-001	0.00000E+000	7	...........	0
	55	5.6	-4.45055E-001	-5.52666E-006	0.00000E+000	-4.44986E-001	0.00000E+000	7	...........	0
	66	6.7	-4.34044E-001	-4.21530E-006	0.00000E+000	-4.33986E-001	0.00000E+000	7	...........	0
	77	7.8	-4.23033E-001	-3.11266E-006	0.00000E+000	-4.22985E-001	0.00000E+000	7	...........	0
	88	8.9	-4.12022E-001	-2.19908E-006	0.00000E+000	-4.11985E-001	0.00000E+000	7	...........	0
	99	10	-4.01111E-001	-1.44354E-006	0.00000E+000	-4.00984E-001	0.00000E+000	7	...........	0
	110	11.1	-3.90000E-001	-9.00720E-007	0.00000E+000	-3.89984E-001	0.00000E+000	7	...........	0
	121	12.2	-3.78889E-001	-4.18921E-007	0.00000E+000	-3.78984E-001	0.00000E+000	7	...........	0
	132	13.3	-3.68078E-001	1.11971E-008	0.00000E+000	-3.67983E-001	0.00000E+000	7	...........	0
	143	14.4	-3.57167E-001	3.65628E-007	0.00000E+000	-3.56983E-001	0.00000E+000	7	...........	0
	154	15.5	-3.45956E-001	7.00053E-007	0.00000E+000	-3.45982E-001	0.00000E+000	7	...........	0
	165	16.6	-3.35145E-001	9.26115E-007	0.00000E+000	-3.34982E-001	0.00000E+000	7	...........	0
	176	17.7	-3.23934E-001	1.19419E-006	0.00000E+000	-3.23981E-001	0.00000E+000	7	...........	0
	187	18.8	-3.13023E-001	1.43092E-006	0.00000E+000	-3.12981E-001	0.00000E+000	7	...........	0
	198	19.9	-3.02113E-001	1.76234E-006	0.00000E+000	-3.01980E-001	0.00000E+000	7	...........	0
	209	21	-2.91002E-001	1.89805E-006	0.00000E+000	-2.90980E-001	0.00000E+000	7	...........	0
	220	22.1	-2.80091E-001	2.25315E-006	0.00000E+000	-2.79979E-001	0.00000E+000	7	...........	0
	231	23.2	-2.69080E-001	2.46854E-006	0.00000E+000	-2.68979E-001	0.00000E+000	7	...........	0
	242	24.3	-2.58169E-001	2.76362E-006	0.00000E+000	-2.57979E-001	0.00000E+000	7	...........	0
	253	25.4	-2.46958E-001	3.18073E-006	0.00000E+000	-2.46978E-001	0.00000E+000	7	...........	0
	264	26.5	-2.35977E-001	3.36579E-006	0.00000E+000	-2.35978E-001	0.00000E+000	7	...........	0
	275	27.6	-2.24926E-001	3.52450E-006	0.00000E+000	-2.24977E-001	0.00000E+000	7	...........	0
	286	28.7	-2.13915E-001	3.99229E-006	0.00000E+000	-2.13977E-001	0.00000E+000	7	...........	0
	297	29.8	-2.02924E-001	4.23469E-006	0.00000E+000	-2.02976E-001	0.00000E+000	7	...........	0
	308	30.9	-1.91913E-001	4.56411E-006	0.00000E+000	-1.91976E-001	0.00000E+000	7	...........	0
	319	32	-1.80932E-001	4.88054E-006	0.00000E+000	-1.80975E-001	0.00000E+000	7	...........	0
	330	33.1	-1.69942E-001	5.38901E-006	0.00000E+000	-1.69975E-001	0.00000E+000	7	...........	0
	341	34.2	-1.58981E-001	5.57673E-006	0.00000E+000	-1.59025E-001	0.00000E+000	7	...........	0
	352	35.3	-1.48000E-001	6.04285E-006	0.00000E+000	-1.48024E-001	0.00000E+000	7	...........	0
	363	36.4	-1.36999E-001	6.61968E-006	0.00000E+000	-1.37024E-001	0.00000E+000	7	...........	0
	374	37.5	-1.26008E-001	6.77739E-006	0.00000E+000	-1.26023E-001	0.00000E+000	7	...........	0
	385	38.6	-1.15037E-001	7.39022E-006	0.00000E+000	-1.15023E-001	0.00000E+000	7	...........	0
	396	39.7	-1.04006E-001	7.93871E-006	0.00000E+000	-1.04022E-001	0.00000E+000	7	...........	0
	407	40.8	-9.30250E-002	8.05574E-006	0.00000E+000	-9.30219E-002	0.00000E+000	7	...........	0
	418	41.9	-8.20240E-002	8.75327E-006	0.00000E+000	-8.20214E-002	0.00000E+000	7	...........	0
	429	43	-7.10131E-002	8.93923E-006	0.00000E+000	-7.10210E-002	0.00000E+000	8	...........	0
	440	44.1	-6.00121E-002	9.21925E-006	0.00000E+000	-6.00205E-002	0.00000E+000	8	...........	0
	451	45.2	-4.90112E-002	1.01993E-005	0.00000E+000	-4.90201E-002	0.00000E+000	8	...........	0
	462	46.3	-3.80202E-002	1.04893E-005	0.00000E+000	-3.80196E-002	0.00000E+000	8	...........	0
	473	47.4	-2.70193E-002	1.07694E-005	0.00000E+000	-2.70192E-002	0.00000E+000	8	...........	0
	484	48.5	-1.59841E-002	1.11494E-005	0.00000E+000	-1.60187E-002	0.00000E+000	8	...........	0
	495	49.6	-5.00613E-003	1.20828E-005	0.00000E+000	-5.01826E-003	0.00000E+000	8	...........	0
	506	50.7	5.97980E-003	1.21528E-005	0.00000E+000	5.98219E-003	0.00000E+000	8	...........	0
	517	51.8	1.69838E-002	1.28862E-005	0.00000E+000	1.69826E-002	0.00000E+000	8	...........	0
	528	52.9	2.80055E-002	1.27995E-005	0.00000E+000	2.79831E-002	0.00000E+000	8	...........	0
	539	54	3.90064E-002	1.32929E-005	0.00000E+000	3.89835E-002	0.00000E+000	8	...........	0
	550	55.1	4.99974E-002	1.35129E-005	0.00000E+000	4.99840E-002	0.00000E+000	8	...........	0
	561	56.2	6.09983E-002	1.43029E-005	0.00000E+000	6.09844E-002	0.00000E+000	8	...........	0
	572	57.3	7.20093E-002	1.44596E-005	0.00000E+000	7.19849E-002	0.00000E+000	8	...........	0
	583	58.4	8.30102E-002	1.45663E-005	0.00000E+000	8.29853E-002	0.00000E+000	8	...........	0
	594	59.5	9.39912E-002	1.55197E-005	0.00000E+000	9.39858E-002	0.00000E+000	8	...........	0
	605	60.6	1.04992E-001	1.53397E-005	0.00000E+000	1.04986E-001	0.00000E+000	8	...........	0
	616	61.7	1.15983E-001	1.59097E-005	0.00000E+000	1.15987E-001	0.00000E+000	8	...........	0
	627	62.8	1.26984E-001	1.62564E-005	0.00000E+000	1.26987E-001	0.00000E+000	8	...........	0
[...]
	671	67.2	1.70968E-001	1.76798E-005	0.00000E+000	1.70989E-001	0.00000E+000	8	...........	0
	682	68.3	1.81999E-001	1.84466E-005	0.00000E+000	1.81989E-001	0.00000E+000	8	...........	0
	693	69.4	1.92990E-001	1.85966E-005	0.00000E+000	1.92990E-001	0.00000E+000	8	...........	0
	704	70.5	2.03981E-001	1.84099E-005	0.00000E+000	2.03990E-001	0.00000E+000	8	...........	0
	715	71.6	2.15012E-001	1.84732E-005	0.00000E+000	2.14991E-001	0.00000E+000	8	...........	0
	726	72.7	2.25983E-001	1.92900E-005	0.00000E+000	2.25991E-001	0.00000E+000	8	...........	0
	737	73.8	2.36973E-001	1.96266E-005	0.00000E+000	2.36992E-001	0.00000E+000	8	...........	0
	748	74.9	2.47974E-001	1.93866E-005	0.00000E+000	2.47992E-001	0.00000E+000	8	...........	0
	759	76	2.58955E-001	2.03600E-005	0.00000E+000	2.58993E-001	0.00000E+000	8	...........	0
	770	77.1	2.70157E-001	2.02500E-005	0.00000E+000	2.69993E-001	0.00000E+000	8	...........	0
	781	78.2	2.81168E-001	2.06700E-005	0.00000E+000	2.80993E-001	0.00000E+000	8	...........	0
	792	79.3	2.92079E-001	2.19135E-005	0.00000E+000	2.91994E-001	0.00000E+000	8	...........	0
	803	80.4	3.03190E-001	2.14201E-005	0.00000E+000	3.02994E-001	0.00000E+000	8	...........	0
	814	81.5	3.14101E-001	2.13934E-005	0.00000E+000	3.13995E-001	0.00000E+000	8	...........	0
	825	82.6	3.25112E-001	2.16535E-005	0.00000E+000	3.24995E-001	0.00000E+000	8	...........	0
	836	83.7	3.36123E-001	2.31502E-005	0.00000E+000	3.35996E-001	0.00000E+000	8	...........	0
	847	84.8	3.47134E-001	2.31069E-005	0.00000E+000	3.46996E-001	0.00000E+000	8	...........	0
	858	85.9	3.58044E-001	2.28902E-005	0.00000E+000	3.57997E-001	0.00000E+000	8	...........	0
	869	87	3.69156E-001	2.34669E-005	0.00000E+000	3.68997E-001	0.00000E+000	8	...........	0
	880	88.1	3.80066E-001	2.43703E-005	0.00000E+000	3.79997E-001	0.00000E+000	8	...........	0
	891	89.2	3.91177E-001	2.38736E-005	0.00000E+000	3.90998E-001	0.00000E+000	8	...........	0
	902	90.3	4.02188E-001	2.55204E-005	0.00000E+000	4.01998E-001	0.00000E+000	8	...........	0
	913	91.4	4.13099E-001	2.54804E-005	0.00000E+000	4.12999E-001	0.00000E+000	8	...........	0
	924	92.5	4.24310E-001	2.50437E-005	0.00000E+000	4.23999E-001	0.00000E+000	8	...........	0
	935	93.6	4.35221E-001	2.68872E-005	0.00000E+000	4.35000E-001	0.00000E+000	8	...........	0
	946	94.7	4.46132E-001	2.59037E-005	0.00000E+000	4.46000E-001	0.00000E+000	8	...........	0
	957	95.8	4.57143E-001	2.69705E-005	0.00000E+000	4.57001E-001	0.00000E+000	8	...........	0
	968	96.9	4.68254E-001	2.75272E-005	0.00000E+000	4.68001E-001	0.00000E+000	8	...........	0
	979	98	4.79165E-001	2.72138E-005	0.00000E+000	4.79002E-001	0.00000E+000	8	...........	0
	990	99.1	4.90276E-001	2.85773E-005	0.00000E+000	4.90002E-001	0.00000E+000	8	...........	0
	1001	100.2	5.01187E-001	2.93173E-005	0.00000E+000	5.01002E-001	0.00000E+000	8	...........	0
	1012	101.3	5.12198E-001	2.85739E-005	0.00000E+000	5.12003E-001	0.00000E+000	8	...........	0
	1023	102.4	5.23209E-001	3.02207E-005	0.00000E+000	5.23003E-001	0.00000E+000	8	...........	0
	1034	103.5	5.34220E-001	3.03341E-005	0.00000E+000	5.34004E-001	0.00000E+000	8	...........	0
	1045	104.6	5.45231E-001	2.99407E-005	0.00000E+000	5.45004E-001	0.00000E+000	8	...........	0
	1056	105.7	5.56242E-001	3.08041E-005	0.00000E+000	5.56005E-001	0.00000E+000	8	...........	0
	1067	106.8	5.67253E-001	3.20742E-005	0.00000E+000	5.67005E-001	0.00000E+000	8	...........	0
	1078	107.9	5.78164E-001	3.14175E-005	0.00000E+000	5.78006E-001	0.00000E+000	8	...........	0
	1089	109	5.89275E-001	3.16675E-005	0.00000E+000	5.89006E-001	0.00000E+000	8	...........	0
	1100	110.1	6.00186E-001	3.37310E-005	0.00000E+000	6.00006E-001	0.00000E+000	8	...........	0

File: ZFO_h400_chop_reator.DTA
EXPLAIN
TAG	LSV
TITLE	LABEL	Linear Sweep Voltammetry	Test &Identifier
DATE	LABEL	7/5/2024	Date
TIME	LABEL	17:34:50	Time
NOTES	NOTES	1	&Notes...

PSTAT	PSTAT	L3FNano	Potentiostat
VINIT	POTEN	-5.00000E-001	F	&Initial E (V)
VFINAL	POTEN	6.00000E-001	F	&Final E (V)
SCANRATE	QUANT	9.99998E+000	&Scan Rate (mV/s)
STEPSIZE	QUANT	1.00000E+000	St&ep Size (mV)
IMODE	SELECTOR	0	I/E Range &Mode
IRANGE	QUANT	1.00000E+001	&Max Current (mA)
AREA	QUANT	1.00000E+000	Electrode &Area (cm^2)
ELECTRODETYPE	SELECTOR	0	Electrode Type
STRIPPING	TOGGLE	F	Used for Stripping
POLARITY	TOGGLE	F	Signal Polarity
CONDIT	TWOPARAM	F	1.50000E+001	0.00000E+000	Conditionin&g	Time(s)	E(V)
DELAY	TWOPARAM	F	3.00000E+001	0.00000E+000	Init. De&lay	Time(s)	Stab.(mV/s)
EQDELAY	QUANT	5.00000E+000	Equil. &Time (s)
IRCOMP	SELECTOR	0	IRCom&p
PFCOR	QUANT	5.00000E+001	PF Corr. (ohm)
SAMPLINGMODE	SELECTOR	0	Sampling &Mode
EOC	QUANT	0	Open Circuit (V)
PSTATMODEL	IQUANT	48	Pstat Model
PSTATSECTION	LABEL	IFC1000-07082	Pstat Section
PSTATSERIALNO	LABEL	07082	Pstat Serial Number
CTRLMODE	IQUANT	1	Control Mode
IESTAB	IQUANT	2	I/E Stability
CASPEED	IQUANT	2	Control Amp Speed
CONVENTION	IQUANT	1	Current Convention
ICHRANGE	IQUANT	2	Ich Range
ICHRANGEMODE	TOGGLE	F	Ich Auto Range
ICHOFFSETENABLE	TOGGLE	F	Ich Offset Enable
ICHOFFSET	QUANT	0	Ich Offset (V)
ICHFILTER	IQUANT	3	Ich Filter
VCHRANGE	IQUANT	2	Vch Range
VCHRANGEMODE	TOGGLE	T	Vch Auto Range
VCHOFFSETENABLE	TOGGLE	F	Vch Offset Enable
VCHOFFSET	QUANT	0	Vch Offset (V)
VCHFILTER	IQUANT	3	Vch Filter
IERANGELOWERLIMIT	IQUANT	4	I/E Range Lower Limit
IERANGEMODE	TOGGLE	T	I/E AutoRange
IERANGE	IQUANT	11	I/E Range
ACHSELECT	IQUANT	4	Ach Select
CABLEID	IQUANT	14	Cable ID
DCCALDATE	LABEL	7/3/2024	DC Calibration Date
ACCALDATE	LABEL	7/3/2024	AC Calibration Date
FRAMEWORKVERSION	QUANT	6.24	Framework Version
INSTRUMENTVERSION	LABEL	3.28	Instrument Version
CURVE	TABLE	1101
	Pt	T	Vf	Im	Vu	Sig	Ach	IERange	Over	Cycle
	#	s	V vs. Ref.	A	V	V	V	#	bits	#
	0	0.1	-5.00010E-001	-4.71743E-006	0.00000E+000	-4.99988E-001	0.00000E+000	11	...........	0
	11	1.2	-4.88999E-001	-7.50487E-006	0.00000E+000	-4.88988E-001	0.00000E+000	7	...........	0
	22	2.3	-4.78088E-001	-6.39456E-006	0.00000E+000	-4.77988E-001	0.00000E+000	7	...........	0
	33	3.4	-4.66977E-001	-5.13322E-006	0.00000E+000	-4.66987E-001	0.00000E+000	7	...........	0
	44	4.5	-4.56066E-001	-4.23030E-006	0.00000E+000	-4.55987E-001	0.00000E+000	7	...........	0
	55	5.6	-4.45055E-001	-1.99269E-006	0.00000E+000	-4.44986E-001	0.00000E+000	7	...........	0
	66	6.7	-4.33944E-001	-2.37979E-006	0.00000E+000	-4.33986E-001	0.00000E+000	7	...........	0
	77	7.8	-4.23033E-001	-1.74228E-006	0.00000E+000	-4.22985E-001	0.00000E+000	7	...........	0
	88	8.9	-4.12022E-001	-1.32184E-006	0.00000E+000	-4.11985E-001	0.00000E+000	7	...........	0
	99	10	-4.01011E-001	-8.45705E-007	0.00000E+000	-4.00984E-001	0.00000E+000	7	...........	0
	110	11.1	-3.90100E-001	-7.98692E-007	0.00000E+000	-3.89984E-001	0.00000E+000	7	...........	0
	121	12.2	-3.79089E-001	-2.04195E-007	0.00000E+000	-3.78984E-001	0.00000E+000	7	...........	0
	132	13.3	-3.67978E-001	2.46262E-007	0.00000E+000	-3.67983E-001	0.00000E+000	7	...........	0
	143	14.4	-3.56967E-001	1.71908E-007	0.00000E+000	-3.56983E-001	0.00000E+000	7	...........	0
	154	15.5	-3.46056E-001	6.57375E-007	0.00000E+000	-3.45982E-001	0.00000E+000	7	...........	0
	165	16.6	-3.35145E-001	1.14584E-006	0.00000E+000	-3.34982E-001	0.00000E+000	7	...........	0
	176	17.7	-3.24034E-001	1.41258E-006	0.00000E+000	-3.23981E-001	0.00000E+000	7	...........	0
	187	18.8	-3.13023E-001	1.56662E-006	0.00000E+000	-3.12981E-001	0.00000E+000	7	...........	0
	198	19.9	-3.02013E-001	1.40025E-006	0.00000E+000	-3.01980E-001	0.00000E+000	7	...........	0
	209	21	-2.91002E-001	9.83798E-007	0.00000E+000	-2.90980E-001	0.00000E+000	7	...........	0
	220	22.1	-2.79991E-001	1.30655E-006	0.00000E+000	-2.79979E-001	0.00000E+000	7	...........	0
	231	23.2	-2.68980E-001	1.11050E-006	0.00000E+000	-2.68979E-001	0.00000E+000	7	...........	0
	242	24.3	-2.57969E-001	1.27955E-006	0.00000E+000	-2.57979E-001	0.00000E+000	7	...........	0
	253	25.4	-2.47058E-001	6.60401E-006	0.00000E+000	-2.46978E-001	0.00000E+000	7	...........	0
	264	26.5	-2.35967E-001	2.53856E-006	0.00000E+000	-2.35978E-001	0.00000E+000	7	...........	0
	275	27.6	-2.24976E-001	2.03975E-006	0.00000E+000	-2.24977E-001	0.00000E+000	7	...........	0
	286	28.7	-2.13935E-001	2.65226E-006	0.00000E+000	-2.13977E-001	0.00000E+000	7	...........	0
	297	29.8	-2.02944E-001	2.15412E-006	0.00000E+000	-2.02976E-001	0.00000E+000	7	...........	0
	308	30.9	-1.91953E-001	1.04748E-006	0.00000E+000	-1.91976E-001	0.00000E+000	7	...........	0
	319	32	-1.80932E-001	1.19886E-006	0.00000E+000	-1.80975E-001	0.00000E+000	7	...........	0
	330	33.1	-1.69962E-001	1.20953E-006	0.00000E+000	-1.69975E-001	0.00000E+000	7	...........	0
	341	34.2	-1.59011E-001	1.43359E-006	0.00000E+000	-1.59025E-001	0.00000E+000	7	...........	0
	352	35.3	-1.48050E-001	1.09265E-005	0.00000E+000	-1.48024E-001	0.00000E+000	7	....ih..i..	0
	363	36.4	-1.37059E-001	2.61725E-006	0.00000E+000	-1.37024E-001	0.00000E+000	7	...........	0
	374	37.5	-1.25988E-001	3.17707E-006	0.00000E+000	-1.26023E-001	0.00000E+000	7	...........	0
	385	38.6	-1.14987E-001	3.53850E-006	0.00000E+000	-1.15023E-001	0.00000E+000	7	...........	0
	396	39.7	-1.04016E-001	2.58157E-006	0.00000E+000	-1.04022E-001	0.00000E+000	7	...........	0
	407	40.8	-9.29849E-002	8.60764E-007	0.00000E+000	-9.30219E-002	0.00000E+000	7	...........	0
	418	41.9	-8.20441E-002	1.28455E-006	0.00000E+000	-8.20214E-002	0.00000E+000	7	...........	0
	429	43	-7.10231E-002	1.41958E-006	0.00000E+000	-7.10210E-002	0.00000E+000	7	...........	0
	440	44.1	-6.00622E-002	1.54629E-006	0.00000E+000	-6.00205E-002	0.00000E+000	7	...........	0
	451	45.2	-4.90812E-002	1.46460E-006	0.00000E+000	-4.90201E-002	0.00000E+000	7	...........	0
	462	46.3	-3.80603E-002	5.25264E-006	0.00000E+000	-3.80196E-002	0.00000E+000	7	...........	0
	473	47.4	-2.70593E-002	3.47081E-006	0.00000E+000	-2.70192E-002	0.00000E+000	7	...........	0
	484	48.5	-1.60321E-002	3.75189E-006	0.00000E+000	-1.60187E-002	0.00000E+000	7	...........	0
	495	49.6	-5.04317E-003	5.36000E-006	0.00000E+000	-5.01826E-003	0.00000E+000	7	...........	0
	506	50.7	5.96479E-003	7.91078E-007	0.00000E+000	5.98219E-003	0.00000E+000	7	...........	0
	517	51.8	1.69397E-002	1.29022E-006	0.00000E+000	1.69826E-002	0.00000E+000	7	...........	0
	528	52.9	2.79454E-002	1.33223E-006	0.00000E+000	2.79831E-002	0.00000E+000	7	...........	0
	539	54	3.89464E-002	1.46560E-006	0.00000E+000	3.89835E-002	0.00000E+000	7	...........	0
	550	55.1	4.99373E-002	1.39291E-006	0.00000E+000	4.99840E-002	0.00000E+000	7	...........	0
	561	56.2	6.09483E-002	7.89803E-006	0.00000E+000	6.09844E-002	0.00000E+000	7	...........	0
	572	57.3	7.19292E-002	4.38373E-006	0.00000E+000	7.19849E-002	0.00000E+000	7	...........	0
	583	58.4	8.28701E-002	6.55199E-006	0.00000E+000	8.29853E-002	0.00000E+000	7	...........	0
	594	59.5	9.39711E-002	5.65641E-006	0.00000E+000	9.39858E-002	0.00000E+000	7	...........	0
	605	60.6	1.04942E-001	-7.98279E-008	0.00000E+000	1.04986E-001	0.00000E+000	7	...........	0
	616	61.7	1.15943E-001	1.09283E-006	0.00000E+000	1.15987E-001	0.00000E+000	7	...........	0
	627	62.8	1.26904E-001	1.22420E-006	0.00000E+000	1.26987E-001	0.00000E+000	7	...........	0
[...]
	671	67.2	1.70928E-001	7.79582E-006	0.00000E+000	1.70989E-001	0.00000E+000	8	...........	0
	682	68.3	1.81929E-001	8.31815E-006	0.00000E+000	1.81989E-001	0.00000E+000	7	...........	0
	693	69.4	1.92870E-001	4.31705E-006	0.00000E+000	1.92990E-001	0.00000E+000	7	...........	0
	704	70.5	2.03921E-001	-2.93995E-006	0.00000E+000	2.03990E-001	0.00000E+000	7	...........	0
	715	71.6	2.14912E-001	5.75019E-007	0.00000E+000	2.14991E-001	0.00000E+000	7	...........	0
	726	72.7	2.25902E-001	9.15112E-007	0.00000E+000	2.25991E-001	0.00000E+000	7	...........	0
	737	73.8	2.36913E-001	8.44759E-007	0.00000E+000	2.36992E-001	0.00000E+000	7	...........	0
	748	74.9	2.47904E-001	9.97801E-007	0.00000E+000	2.47992E-001	0.00000E+000	7	...........	0
	759	76	2.58875E-001	9.90930E-006	0.00000E+000	2.58993E-001	0.00000E+000	8	...........	0
	770	77.1	2.70157E-001	1.09265E-005	0.00000E+000	2.69993E-001	0.00000E+000	7	....ih..i..	0
	781	78.2	2.81068E-001	6.79242E-006	0.00000E+000	2.80993E-001	0.00000E+000	8	...........	0
	792	79.3	2.91979E-001	7.16244E-006	0.00000E+000	2.91994E-001	0.00000E+000	8	...........	0
	803	80.4	3.03090E-001	-6.92188E-006	0.00000E+000	3.02994E-001	0.00000E+000	8	...........	0
	814	81.5	3.14101E-001	6.17364E-007	0.00000E+000	3.13995E-001	0.00000E+000	7	...........	0
	825	82.6	3.25112E-001	1.12250E-006	0.00000E+000	3.24995E-001	0.00000E+000	7	...........	0
	836	83.7	3.36023E-001	1.25821E-006	0.00000E+000	3.35996E-001	0.00000E+000	7	...........	0
	847	84.8	3.47034E-001	1.50961E-006	0.00000E+000	3.46996E-001	0.00000E+000	7	...........	0
	858	85.9	3.58044E-001	2.08067E-005	0.00000E+000	3.57997E-001	0.00000E+000	8	...........	0
	869	87	3.69156E-001	1.17394E-005	0.00000E+000	3.68997E-001	0.00000E+000	8	...........	0
	880	88.1	3.80066E-001	1.83332E-005	0.00000E+000	3.79997E-001	0.00000E+000	8	...........	0
	891	89.2	3.90977E-001	1.15361E-005	0.00000E+000	3.90998E-001	0.00000E+000	8	...........	0
	902	90.3	4.02188E-001	-9.71874E-006	0.00000E+000	4.01998E-001	0.00000E+000	8	...........	0
	913	91.4	4.13099E-001	1.28288E-006	0.00000E+000	4.12999E-001	0.00000E+000	7	...........	0
	924	92.5	4.24010E-001	2.12444E-006	0.00000E+000	4.23999E-001	0.00000E+000	7	...........	0
	935	93.6	4.35121E-001	2.56290E-006	0.00000E+000	4.35000E-001	0.00000E+000	7	...........	0
	946	94.7	4.46132E-001	3.01302E-006	0.00000E+000	4.46000E-001	0.00000E+000	7	...........	0
	957	95.8	4.57143E-001	3.38243E-005	0.00000E+000	4.57001E-001	0.00000E+000	8	...........	0
	968	96.9	4.68154E-001	2.16201E-005	0.00000E+000	4.68001E-001	0.00000E+000	8	...........	0
	979	98	4.79165E-001	2.68105E-005	0.00000E+000	4.79002E-001	0.00000E+000	8	...........	0
	990	99.1	4.90076E-001	2.89040E-005	0.00000E+000	4.90002E-001	0.00000E+000	8	...........	0
	1001	100.2	5.01187E-001	2.49804E-005	0.00000E+000	5.01002E-001	0.00000E+000	8	...........	0
	1012	101.3	5.12098E-001	2.84064E-006	0.00000E+000	5.12003E-001	0.00000E+000	7	...........	0
	1023	102.4	5.23109E-001	6.16956E-006	0.00000E+000	5.23003E-001	0.00000E+000	7	...........	0
	1034	103.5	5.34120E-001	8.02640E-006	0.00000E+000	5.34004E-001	0.00000E+000	7	...........	0
	1045	104.6	5.45131E-001	9.88596E-006	0.00000E+000	5.45004E-001	0.00000E+000	8	...........	0
	1056	105.7	5.56242E-001	6.06295E-005	0.00000E+000	5.56005E-001	0.00000E+000	8	...........	0
	1067	106.8	5.67153E-001	4.98321E-005	0.00000E+000	5.67005E-001	0.00000E+000	8	...........	0
	1078	107.9	5.78164E-001	6.16629E-005	0.00000E+000	5.78006E-001	0.00000E+000	8	...........	0
	1089	109	5.89175E-001	6.37564E-005	0.00000E+000	5.89006E-001	0.00000E+000	8	...........	0
	1100	110.1	6.00186E-001	8.04442E-005	0.00000E+000	6.00006E-001	0.00000E+000	8	...........	0