Folder: DataAnalysis/LSV ZFO (part 9)

File: ZFO_h300_dark_reator.DTA
EXPLAIN
TAG	LSV
TITLE	LABEL	Linear Sweep Voltammetry	Test &Identifier
DATE	LABEL	7/5/2024	Date
TIME	LABEL	17:42:23	Time
NOTES	NOTES	1	&Notes...

PSTAT	PSTAT	L3FNano	Potentiostat
VINIT	POTEN	-5.00000E-001	F	&Initial E (V)
VFINAL	POTEN	6.00000E-001	F	&Final E (V)
SCANRATE	QUANT	9.99998E+000	&Scan Rate (mV/s)
STEPSIZE	QUANT	1.00000E+000	St&ep Size (mV)
IMODE	SELECTOR	0	I/E Range &Mode
IRANGE	QUANT	1.00000E+001	&Max Current (mA)
AREA	QUANT	1.00000E+000	Electrode &Area (cm^2)
ELECTRODETYPE	SELECTOR	0	Electrode Type
STRIPPING	TOGGLE	F	Used for Stripping
POLARITY	TOGGLE	F	Signal Polarity
CONDIT	TWOPARAM	F	1.50000E+001	0.00000E+000	Conditionin&g	Time(s)	E(V)
DELAY	TWOPARAM	F	3.00000E+001	0.00000E+000	Init. De&lay	Time(s)	Stab.(mV/s)
EQDELAY	QUANT	5.00000E+000	Equil. &Time (s)
IRCOMP	SELECTOR	0	IRCom&p
PFCOR	QUANT	5.00000E+001	PF Corr. (ohm)
SAMPLINGMODE	SELECTOR	0	Sampling &Mode
EOC	QUANT	0	Open Circuit (V)
PSTATMODEL	IQUANT	48	Pstat Model
PSTATSECTION	LABEL	IFC1000-07082	Pstat Section
PSTATSERIALNO	LABEL	07082	Pstat Serial Number
CTRLMODE	IQUANT	1	Control Mode
IESTAB	IQUANT	2	I/E Stability
CASPEED	IQUANT	2	Control Amp Speed
CONVENTION	IQUANT	1	Current Convention
ICHRANGE	IQUANT	2	Ich Range
ICHRANGEMODE	TOGGLE	F	Ich Auto Range
ICHOFFSETENABLE	TOGGLE	F	Ich Offset Enable
ICHOFFSET	QUANT	0	Ich Offset (V)
ICHFILTER	IQUANT	3	Ich Filter
VCHRANGE	IQUANT	2	Vch Range
VCHRANGEMODE	TOGGLE	T	Vch Auto Range
VCHOFFSETENABLE	TOGGLE	F	Vch Offset Enable
VCHOFFSET	QUANT	0	Vch Offset (V)
VCHFILTER	IQUANT	3	Vch Filter
IERANGELOWERLIMIT	IQUANT	4	I/E Range Lower Limit
IERANGEMODE	TOGGLE	T	I/E AutoRange
IERANGE	IQUANT	11	I/E Range
ACHSELECT	IQUANT	4	Ach Select
CABLEID	IQUANT	14	Cable ID
DCCALDATE	LABEL	7/3/2024	DC Calibration Date
ACCALDATE	LABEL	7/3/2024	AC Calibration Date
FRAMEWORKVERSION	QUANT	6.24	Framework Version
INSTRUMENTVERSION	LABEL	3.28	Instrument Version
CURVE	TABLE	1101
	Pt	T	Vf	Im	Vu	Sig	Ach	IERange	Over	Cycle
	#	s	V vs. Ref.	A	V	V	V	#	bits	#
	0	0.1	-5.00010E-001	-2.13536E-005	0.00000E+000	-4.99988E-001	0.00000E+000	11	...........	0
	11	1.2	-4.88999E-001	-2.11662E-005	0.00000E+000	-4.88988E-001	0.00000E+000	8	...........	0
	22	2.3	-4.77988E-001	-1.70226E-005	0.00000E+000	-4.77988E-001	0.00000E+000	8	...........	0
	33	3.4	-4.66977E-001	-1.36657E-005	0.00000E+000	-4.66987E-001	0.00000E+000	8	...........	0
	44	4.5	-4.55866E-001	-1.09188E-005	0.00000E+000	-4.55987E-001	0.00000E+000	8	...........	0
	55	5.6	-4.44955E-001	-8.67866E-006	0.00000E+000	-4.44986E-001	0.00000E+000	8	...........	0
	66	6.7	-4.34044E-001	-6.89803E-006	0.00000E+000	-4.33986E-001	0.00000E+000	7	...........	0
	77	7.8	-4.23033E-001	-5.45564E-006	0.00000E+000	-4.22985E-001	0.00000E+000	7	...........	0
	88	8.9	-4.12022E-001	-4.26731E-006	0.00000E+000	-4.11985E-001	0.00000E+000	7	...........	0
	99	10	-4.01011E-001	-3.26137E-006	0.00000E+000	-4.00984E-001	0.00000E+000	7	...........	0
	110	11.1	-3.89900E-001	-2.44714E-006	0.00000E+000	-3.89984E-001	0.00000E+000	7	...........	0
	121	12.2	-3.78889E-001	-1.85898E-006	0.00000E+000	-3.78984E-001	0.00000E+000	7	...........	0
	132	13.3	-3.67978E-001	-1.34084E-006	0.00000E+000	-3.67983E-001	0.00000E+000	7	...........	0
	143	14.4	-3.56967E-001	-9.01387E-007	0.00000E+000	-3.56983E-001	0.00000E+000	7	...........	0
	154	15.5	-3.46056E-001	-6.28645E-007	0.00000E+000	-3.45982E-001	0.00000E+000	7	...........	0
	165	16.6	-3.35045E-001	-3.59238E-007	0.00000E+000	-3.34982E-001	0.00000E+000	7	...........	0
	176	17.7	-3.23934E-001	-1.56182E-007	0.00000E+000	-3.23981E-001	0.00000E+000	7	...........	0
	187	18.8	-3.13023E-001	2.86151E-009	0.00000E+000	-3.12981E-001	0.00000E+000	7	...........	0
	198	19.9	-3.02013E-001	9.82210E-008	0.00000E+000	-3.01980E-001	0.00000E+000	7	...........	0
	209	21	-2.91002E-001	2.09252E-007	0.00000E+000	-2.90980E-001	0.00000E+000	7	...........	0
	220	22.1	-2.79890E-001	2.73269E-007	0.00000E+000	-2.79979E-001	0.00000E+000	7	...........	0
	231	23.2	-2.68880E-001	3.02611E-007	0.00000E+000	-2.68979E-001	0.00000E+000	7	...........	0
	242	24.3	-2.57969E-001	3.89634E-007	0.00000E+000	-2.57979E-001	0.00000E+000	7	...........	0
	253	25.4	-2.46958E-001	3.87300E-007	0.00000E+000	-2.46978E-001	0.00000E+000	7	...........	0
	264	26.5	-2.35997E-001	4.29645E-007	0.00000E+000	-2.35978E-001	0.00000E+000	7	...........	0
	275	27.6	-2.24976E-001	4.17642E-007	0.00000E+000	-2.24977E-001	0.00000E+000	7	...........	0
	286	28.7	-2.13975E-001	4.90329E-007	0.00000E+000	-2.13977E-001	0.00000E+000	7	...........	0
	297	29.8	-2.02984E-001	5.40676E-007	0.00000E+000	-2.02976E-001	0.00000E+000	7	...........	0
	308	30.9	-1.91963E-001	5.99359E-007	0.00000E+000	-1.91976E-001	0.00000E+000	7	...........	0
	319	32	-1.80993E-001	6.22032E-007	0.00000E+000	-1.80975E-001	0.00000E+000	7	...........	0
	330	33.1	-1.69992E-001	6.76047E-007	0.00000E+000	-1.69975E-001	0.00000E+000	7	...........	0
	341	34.2	-1.59041E-001	6.62043E-007	0.00000E+000	-1.59025E-001	0.00000E+000	7	...........	0
	352	35.3	-1.48070E-001	7.23726E-007	0.00000E+000	-1.48024E-001	0.00000E+000	7	...........	0
	363	36.4	-1.37059E-001	7.56735E-007	0.00000E+000	-1.37024E-001	0.00000E+000	7	...........	0
	374	37.5	-1.26068E-001	7.94746E-007	0.00000E+000	-1.26023E-001	0.00000E+000	7	...........	0
	385	38.6	-1.15047E-001	8.18752E-007	0.00000E+000	-1.15023E-001	0.00000E+000	7	...........	0
	396	39.7	-1.04056E-001	8.53429E-007	0.00000E+000	-1.04022E-001	0.00000E+000	7	...........	0
	407	40.8	-9.30650E-002	8.73767E-007	0.00000E+000	-9.30219E-002	0.00000E+000	7	...........	0
	418	41.9	-8.20641E-002	8.57096E-007	0.00000E+000	-8.20214E-002	0.00000E+000	7	...........	0
	429	43	-7.10431E-002	9.23448E-007	0.00000E+000	-7.10210E-002	0.00000E+000	7	...........	0
	440	44.1	-6.00822E-002	9.73795E-007	0.00000E+000	-6.00205E-002	0.00000E+000	7	...........	0
	451	45.2	-4.90512E-002	1.05648E-006	0.00000E+000	-4.90201E-002	0.00000E+000	7	...........	0
	462	46.3	-3.80403E-002	1.12884E-006	0.00000E+000	-3.80196E-002	0.00000E+000	7	...........	0
	473	47.4	-2.70493E-002	1.16351E-006	0.00000E+000	-2.70192E-002	0.00000E+000	7	...........	0
	484	48.5	-1.60411E-002	1.16852E-006	0.00000E+000	-1.60187E-002	0.00000E+000	7	...........	0
	495	49.6	-5.06018E-003	1.18319E-006	0.00000E+000	-5.01826E-003	0.00000E+000	7	...........	0
	506	50.7	5.90973E-003	1.16218E-006	0.00000E+000	5.98219E-003	0.00000E+000	7	...........	0
	517	51.8	1.69257E-002	1.18452E-006	0.00000E+000	1.69826E-002	0.00000E+000	7	...........	0
	528	52.9	2.79454E-002	1.33456E-006	0.00000E+000	2.79831E-002	0.00000E+000	7	...........	0
	539	54	3.89364E-002	1.35257E-006	0.00000E+000	3.89835E-002	0.00000E+000	7	...........	0
	550	55.1	4.99573E-002	1.43726E-006	0.00000E+000	4.99840E-002	0.00000E+000	7	...........	0
	561	56.2	6.09383E-002	1.39991E-006	0.00000E+000	6.09844E-002	0.00000E+000	7	...........	0
	572	57.3	7.19592E-002	1.42492E-006	0.00000E+000	7.19849E-002	0.00000E+000	7	...........	0
	583	58.4	8.29402E-002	1.47260E-006	0.00000E+000	8.29853E-002	0.00000E+000	7	...........	0
	594	59.5	9.39511E-002	1.50227E-006	0.00000E+000	9.39858E-002	0.00000E+000	7	...........	0
	605	60.6	1.04942E-001	1.58996E-006	0.00000E+000	1.04986E-001	0.00000E+000	7	...........	0
	616	61.7	1.15953E-001	1.68199E-006	0.00000E+000	1.15987E-001	0.00000E+000	7	...........	0
	627	62.8	1.26924E-001	1.68266E-006	0.00000E+000	1.26987E-001	0.00000E+000	7	...........	0
[...]
	671	67.2	1.70958E-001	1.88271E-006	0.00000E+000	1.70989E-001	0.00000E+000	7	...........	0
	682	68.3	1.81939E-001	1.86537E-006	0.00000E+000	1.81989E-001	0.00000E+000	7	...........	0
	693	69.4	1.92950E-001	1.84670E-006	0.00000E+000	1.92990E-001	0.00000E+000	7	...........	0
	704	70.5	2.03951E-001	1.89738E-006	0.00000E+000	2.03990E-001	0.00000E+000	7	...........	0
	715	71.6	2.14932E-001	1.93839E-006	0.00000E+000	2.14991E-001	0.00000E+000	7	...........	0
	726	72.7	2.25933E-001	1.98607E-006	0.00000E+000	2.25991E-001	0.00000E+000	7	...........	0
	737	73.8	2.36943E-001	2.10110E-006	0.00000E+000	2.36992E-001	0.00000E+000	7	...........	0
	748	74.9	2.47924E-001	2.02375E-006	0.00000E+000	2.47992E-001	0.00000E+000	7	...........	0
	759	76	2.58925E-001	2.11411E-006	0.00000E+000	2.58993E-001	0.00000E+000	7	...........	0
	770	77.1	2.70157E-001	2.01975E-006	0.00000E+000	2.69993E-001	0.00000E+000	7	...........	0
	781	78.2	2.81068E-001	2.01075E-006	0.00000E+000	2.80993E-001	0.00000E+000	7	...........	0
	792	79.3	2.92079E-001	2.14312E-006	0.00000E+000	2.91994E-001	0.00000E+000	7	...........	0
	803	80.4	3.03090E-001	2.16612E-006	0.00000E+000	3.02994E-001	0.00000E+000	7	...........	0
	814	81.5	3.14101E-001	2.12678E-006	0.00000E+000	3.13995E-001	0.00000E+000	7	...........	0
	825	82.6	3.25212E-001	2.15779E-006	0.00000E+000	3.24995E-001	0.00000E+000	7	...........	0
	836	83.7	3.36123E-001	2.27582E-006	0.00000E+000	3.35996E-001	0.00000E+000	7	...........	0
	847	84.8	3.47134E-001	2.32283E-006	0.00000E+000	3.46996E-001	0.00000E+000	7	...........	0
	858	85.9	3.58145E-001	2.29182E-006	0.00000E+000	3.57997E-001	0.00000E+000	7	...........	0
	869	87	3.69156E-001	2.30683E-006	0.00000E+000	3.68997E-001	0.00000E+000	7	...........	0
	880	88.1	3.80167E-001	2.38418E-006	0.00000E+000	3.79997E-001	0.00000E+000	7	...........	0
	891	89.2	3.91278E-001	2.44153E-006	0.00000E+000	3.90998E-001	0.00000E+000	7	...........	0
	902	90.3	4.02188E-001	2.58724E-006	0.00000E+000	4.01998E-001	0.00000E+000	7	...........	0
	913	91.4	4.13299E-001	2.62592E-006	0.00000E+000	4.12999E-001	0.00000E+000	7	...........	0
	924	92.5	4.24310E-001	2.72594E-006	0.00000E+000	4.23999E-001	0.00000E+000	7	...........	0
	935	93.6	4.35121E-001	2.86765E-006	0.00000E+000	4.35000E-001	0.00000E+000	7	...........	0
	946	94.7	4.46232E-001	3.00702E-006	0.00000E+000	4.46000E-001	0.00000E+000	7	...........	0
	957	95.8	4.57143E-001	3.00069E-006	0.00000E+000	4.57001E-001	0.00000E+000	7	...........	0
	968	96.9	4.68154E-001	3.11172E-006	0.00000E+000	4.68001E-001	0.00000E+000	7	...........	0
	979	98	4.79165E-001	3.29043E-006	0.00000E+000	4.79002E-001	0.00000E+000	7	...........	0
	990	99.1	4.90176E-001	3.43247E-006	0.00000E+000	4.90002E-001	0.00000E+000	7	...........	0
	1001	100.2	5.01187E-001	3.57284E-006	0.00000E+000	5.01002E-001	0.00000E+000	7	...........	0
	1012	101.3	5.12198E-001	3.73956E-006	0.00000E+000	5.12003E-001	0.00000E+000	7	...........	0
	1023	102.4	5.23309E-001	3.80424E-006	0.00000E+000	5.23003E-001	0.00000E+000	7	...........	0
	1034	103.5	5.34220E-001	3.90393E-006	0.00000E+000	5.34004E-001	0.00000E+000	7	...........	0
	1045	104.6	5.45231E-001	4.11066E-006	0.00000E+000	5.45004E-001	0.00000E+000	7	...........	0
	1056	105.7	5.56242E-001	4.30904E-006	0.00000E+000	5.56005E-001	0.00000E+000	7	...........	0
	1067	106.8	5.67153E-001	4.44742E-006	0.00000E+000	5.67005E-001	0.00000E+000	7	...........	0
	1078	107.9	5.78264E-001	4.49910E-006	0.00000E+000	5.78006E-001	0.00000E+000	7	...........	0
	1089	109	5.89275E-001	4.64247E-006	0.00000E+000	5.89006E-001	0.00000E+000	7	...........	0
	1100	110.1	6.00286E-001	4.73216E-006	0.00000E+000	6.00006E-001	0.00000E+000	7	...........	0

File: ZFO_h300_light.DTA
EXPLAIN
TAG	LSV
TITLE	LABEL	Linear Sweep Voltammetry	Test &Identifier
DATE	LABEL	7/5/2024	Date
TIME	LABEL	16:40:51	Time
NOTES	NOTES	1	&Notes...

PSTAT	PSTAT	L3FNano	Potentiostat
VINIT	POTEN	-5.00000E-001	F	&Initial E (V)
VFINAL	POTEN	6.00000E-001	F	&Final E (V)
SCANRATE	QUANT	9.99998E+000	&Scan Rate (mV/s)
STEPSIZE	QUANT	1.00000E+000	St&ep Size (mV)
IMODE	SELECTOR	0	I/E Range &Mode
IRANGE	QUANT	1.00000E+001	&Max Current (mA)
AREA	QUANT	1.00000E+000	Electrode &Area (cm^2)
ELECTRODETYPE	SELECTOR	0	Electrode Type
STRIPPING	TOGGLE	F	Used for Stripping
POLARITY	TOGGLE	F	Signal Polarity
CONDIT	TWOPARAM	F	1.50000E+001	0.00000E+000	Conditionin&g	Time(s)	E(V)
DELAY	TWOPARAM	F	3.00000E+001	0.00000E+000	Init. De&lay	Time(s)	Stab.(mV/s)
EQDELAY	QUANT	5.00000E+000	Equil. &Time (s)
IRCOMP	SELECTOR	0	IRCom&p
PFCOR	QUANT	5.00000E+001	PF Corr. (ohm)
SAMPLINGMODE	SELECTOR	0	Sampling &Mode
EOC	QUANT	0	Open Circuit (V)
PSTATMODEL	IQUANT	48	Pstat Model
PSTATSECTION	LABEL	IFC1000-07082	Pstat Section
PSTATSERIALNO	LABEL	07082	Pstat Serial Number
CTRLMODE	IQUANT	1	Control Mode
IESTAB	IQUANT	2	I/E Stability
CASPEED	IQUANT	2	Control Amp Speed
CONVENTION	IQUANT	1	Current Convention
ICHRANGE	IQUANT	2	Ich Range
ICHRANGEMODE	TOGGLE	F	Ich Auto Range
ICHOFFSETENABLE	TOGGLE	F	Ich Offset Enable
ICHOFFSET	QUANT	0	Ich Offset (V)
ICHFILTER	IQUANT	3	Ich Filter
VCHRANGE	IQUANT	2	Vch Range
VCHRANGEMODE	TOGGLE	T	Vch Auto Range
VCHOFFSETENABLE	TOGGLE	F	Vch Offset Enable
VCHOFFSET	QUANT	0	Vch Offset (V)
VCHFILTER	IQUANT	3	Vch Filter
IERANGELOWERLIMIT	IQUANT	4	I/E Range Lower Limit
IERANGEMODE	TOGGLE	T	I/E AutoRange
IERANGE	IQUANT	11	I/E Range
ACHSELECT	IQUANT	4	Ach Select
CABLEID	IQUANT	14	Cable ID
DCCALDATE	LABEL	7/3/2024	DC Calibration Date
ACCALDATE	LABEL	7/3/2024	AC Calibration Date
FRAMEWORKVERSION	QUANT	6.24	Framework Version
INSTRUMENTVERSION	LABEL	3.28	Instrument Version
CURVE	TABLE	1101
	Pt	T	Vf	Im	Vu	Sig	Ach	IERange	Over	Cycle
	#	s	V vs. Ref.	A	V	V	V	#	bits	#
	0	0.1	-5.00010E-001	-1.13719E-005	0.00000E+000	-4.99988E-001	0.00000E+000	11	...........	0
	11	1.2	-4.89199E-001	-1.54091E-005	0.00000E+000	-4.88988E-001	0.00000E+000	8	...........	0
	22	2.3	-4.78088E-001	-1.27423E-005	0.00000E+000	-4.77988E-001	0.00000E+000	8	...........	0
	33	3.4	-4.67177E-001	-1.06188E-005	0.00000E+000	-4.66987E-001	0.00000E+000	8	...........	0
	44	4.5	-4.56166E-001	-9.02202E-006	0.00000E+000	-4.55987E-001	0.00000E+000	8	...........	0
	55	5.6	-4.44955E-001	-7.37383E-006	0.00000E+000	-4.44986E-001	0.00000E+000	7	...........	0
	66	6.7	-4.34044E-001	-6.04913E-006	0.00000E+000	-4.33986E-001	0.00000E+000	7	...........	0
	77	7.8	-4.23033E-001	-4.84114E-006	0.00000E+000	-4.22985E-001	0.00000E+000	7	...........	0
	88	8.9	-4.11922E-001	-4.03425E-006	0.00000E+000	-4.11985E-001	0.00000E+000	7	...........	0
	99	10	-4.00911E-001	-2.99229E-006	0.00000E+000	-4.00984E-001	0.00000E+000	7	...........	0
	110	11.1	-3.90000E-001	-2.41847E-006	0.00000E+000	-3.89984E-001	0.00000E+000	7	...........	0
	121	12.2	-3.78989E-001	-1.70161E-006	0.00000E+000	-3.78984E-001	0.00000E+000	7	...........	0
	132	13.3	-3.67978E-001	-1.08244E-006	0.00000E+000	-3.67983E-001	0.00000E+000	7	...........	0
	143	14.4	-3.56967E-001	-7.89023E-007	0.00000E+000	-3.56983E-001	0.00000E+000	7	...........	0
	154	15.5	-3.45956E-001	-3.18894E-007	0.00000E+000	-3.45982E-001	0.00000E+000	7	...........	0
	165	16.6	-3.35045E-001	1.57904E-007	0.00000E+000	-3.34982E-001	0.00000E+000	7	...........	0
	176	17.7	-3.23934E-001	7.13724E-007	0.00000E+000	-3.23981E-001	0.00000E+000	7	...........	0
	187	18.8	-3.13023E-001	7.91745E-007	0.00000E+000	-3.12981E-001	0.00000E+000	7	...........	0
	198	19.9	-3.02013E-001	1.24520E-006	0.00000E+000	-3.01980E-001	0.00000E+000	7	...........	0
	209	21	-2.90901E-001	1.38057E-006	0.00000E+000	-2.90980E-001	0.00000E+000	7	...........	0
	220	22.1	-2.79890E-001	1.89972E-006	0.00000E+000	-2.79979E-001	0.00000E+000	7	...........	0
	231	23.2	-2.68980E-001	2.00108E-006	0.00000E+000	-2.68979E-001	0.00000E+000	7	...........	0
	242	24.3	-2.57869E-001	2.64392E-006	0.00000E+000	-2.57979E-001	0.00000E+000	7	...........	0
	253	25.4	-2.46958E-001	2.74395E-006	0.00000E+000	-2.46978E-001	0.00000E+000	7	...........	0
	264	26.5	-2.35897E-001	3.10071E-006	0.00000E+000	-2.35978E-001	0.00000E+000	7	...........	0
	275	27.6	-2.24886E-001	3.69754E-006	0.00000E+000	-2.24977E-001	0.00000E+000	7	...........	0
	286	28.7	-2.13915E-001	3.77490E-006	0.00000E+000	-2.13977E-001	0.00000E+000	7	...........	0
	297	29.8	-2.02914E-001	4.19501E-006	0.00000E+000	-2.02976E-001	0.00000E+000	7	...........	0
	308	30.9	-1.91903E-001	4.79851E-006	0.00000E+000	-1.91976E-001	0.00000E+000	7	...........	0
	319	32	-1.80912E-001	4.71582E-006	0.00000E+000	-1.80975E-001	0.00000E+000	7	...........	0
	330	33.1	-1.69891E-001	5.00924E-006	0.00000E+000	-1.69975E-001	0.00000E+000	7	...........	0
	341	34.2	-1.58971E-001	5.66608E-006	0.00000E+000	-1.59025E-001	0.00000E+000	7	...........	0
	352	35.3	-1.47980E-001	5.72610E-006	0.00000E+000	-1.48024E-001	0.00000E+000	7	...........	0
	363	36.4	-1.36989E-001	5.93149E-006	0.00000E+000	-1.37024E-001	0.00000E+000	7	...........	0
	374	37.5	-1.25998E-001	6.47497E-006	0.00000E+000	-1.26023E-001	0.00000E+000	7	...........	0
	385	38.6	-1.14997E-001	6.52865E-006	0.00000E+000	-1.15023E-001	0.00000E+000	7	...........	0
	396	39.7	-1.04006E-001	7.25385E-006	0.00000E+000	-1.04022E-001	0.00000E+000	7	...........	0
	407	40.8	-9.29949E-002	7.50826E-006	0.00000E+000	-9.30219E-002	0.00000E+000	7	...........	0
	418	41.9	-8.20140E-002	7.29653E-006	0.00000E+000	-8.20214E-002	0.00000E+000	7	...........	0
	429	43	-7.09930E-002	7.46091E-006	0.00000E+000	-7.10210E-002	0.00000E+000	7	...........	0
	440	44.1	-6.00021E-002	7.91503E-006	0.00000E+000	-6.00205E-002	0.00000E+000	7	...........	0
	451	45.2	-4.89811E-002	8.03240E-006	0.00000E+000	-4.90201E-002	0.00000E+000	7	...........	0
	462	46.3	-3.79802E-002	8.22545E-006	0.00000E+000	-3.80196E-002	0.00000E+000	7	...........	0
	473	47.4	-2.69892E-002	8.50987E-006	0.00000E+000	-2.70192E-002	0.00000E+000	7	...........	0
	484	48.5	-1.59831E-002	8.81922E-006	0.00000E+000	-1.60187E-002	0.00000E+000	8	...........	0
	495	49.6	-4.98911E-003	9.29926E-006	0.00000E+000	-5.01826E-003	0.00000E+000	8	...........	0
	506	50.7	6.00783E-003	9.14591E-006	0.00000E+000	5.98219E-003	0.00000E+000	8	...........	0
	517	51.8	1.70028E-002	9.30259E-006	0.00000E+000	1.69826E-002	0.00000E+000	8	...........	0
	528	52.9	2.80155E-002	9.81929E-006	0.00000E+000	2.79831E-002	0.00000E+000	8	...........	0
	539	54	3.90365E-002	9.61928E-006	0.00000E+000	3.89835E-002	0.00000E+000	8	...........	0
	550	55.1	5.00174E-002	9.67262E-006	0.00000E+000	4.99840E-002	0.00000E+000	8	...........	0
	561	56.2	6.10184E-002	9.86263E-006	0.00000E+000	6.09844E-002	0.00000E+000	8	...........	0
	572	57.3	7.20193E-002	1.05160E-005	0.00000E+000	7.19849E-002	0.00000E+000	8	...........	0
	583	58.4	8.30203E-002	1.04560E-005	0.00000E+000	8.29853E-002	0.00000E+000	8	...........	0
	594	59.5	9.40212E-002	1.05127E-005	0.00000E+000	9.39858E-002	0.00000E+000	8	...........	0
	605	60.6	1.05022E-001	1.01793E-005	0.00000E+000	1.04986E-001	0.00000E+000	8	...........	0
	616	61.7	1.16003E-001	1.03627E-005	0.00000E+000	1.15987E-001	0.00000E+000	8	...........	0
	627	62.8	1.27004E-001	1.12094E-005	0.00000E+000	1.26987E-001	0.00000E+000	8	...........	0
[...]
	671	67.2	1.71018E-001	1.16328E-005	0.00000E+000	1.70989E-001	0.00000E+000	8	...........	0
	682	68.3	1.82009E-001	1.14927E-005	0.00000E+000	1.81989E-001	0.00000E+000	8	...........	0
	693	69.4	1.92990E-001	1.13161E-005	0.00000E+000	1.92990E-001	0.00000E+000	8	...........	0
	704	70.5	2.04001E-001	1.19461E-005	0.00000E+000	2.03990E-001	0.00000E+000	8	...........	0
	715	71.6	2.14992E-001	1.20694E-005	0.00000E+000	2.14991E-001	0.00000E+000	8	...........	0
	726	72.7	2.26013E-001	1.17194E-005	0.00000E+000	2.25991E-001	0.00000E+000	8	...........	0
	737	73.8	2.36994E-001	1.25495E-005	0.00000E+000	2.36992E-001	0.00000E+000	8	...........	0
	748	74.9	2.47994E-001	1.29695E-005	0.00000E+000	2.47992E-001	0.00000E+000	8	...........	0
	759	76	2.58955E-001	1.28728E-005	0.00000E+000	2.58993E-001	0.00000E+000	8	...........	0
	770	77.1	2.70157E-001	1.25862E-005	0.00000E+000	2.69993E-001	0.00000E+000	8	...........	0
	781	78.2	2.81168E-001	1.30128E-005	0.00000E+000	2.80993E-001	0.00000E+000	8	...........	0
	792	79.3	2.92079E-001	1.27495E-005	0.00000E+000	2.91994E-001	0.00000E+000	8	...........	0
	803	80.4	3.03190E-001	1.37629E-005	0.00000E+000	3.02994E-001	0.00000E+000	8	...........	0
	814	81.5	3.14201E-001	1.37129E-005	0.00000E+000	3.13995E-001	0.00000E+000	8	...........	0
	825	82.6	3.25112E-001	1.42363E-005	0.00000E+000	3.24995E-001	0.00000E+000	8	...........	0
	836	83.7	3.36223E-001	1.48130E-005	0.00000E+000	3.35996E-001	0.00000E+000	8	...........	0
	847	84.8	3.47234E-001	1.49563E-005	0.00000E+000	3.46996E-001	0.00000E+000	8	...........	0
	858	85.9	3.58145E-001	1.47630E-005	0.00000E+000	3.57997E-001	0.00000E+000	8	...........	0
	869	87	3.69156E-001	1.47630E-005	0.00000E+000	3.68997E-001	0.00000E+000	8	...........	0
	880	88.1	3.80167E-001	1.54664E-005	0.00000E+000	3.79997E-001	0.00000E+000	8	...........	0
	891	89.2	3.91177E-001	1.53563E-005	0.00000E+000	3.90998E-001	0.00000E+000	8	...........	0
	902	90.3	4.02188E-001	1.53530E-005	0.00000E+000	4.01998E-001	0.00000E+000	8	...........	0
	913	91.4	4.13299E-001	1.54630E-005	0.00000E+000	4.12999E-001	0.00000E+000	8	...........	0
	924	92.5	4.24210E-001	1.65364E-005	0.00000E+000	4.23999E-001	0.00000E+000	8	...........	0
	935	93.6	4.35221E-001	1.67764E-005	0.00000E+000	4.35000E-001	0.00000E+000	8	...........	0
	946	94.7	4.46232E-001	1.65098E-005	0.00000E+000	4.46000E-001	0.00000E+000	8	...........	0
	957	95.8	4.57143E-001	1.71131E-005	0.00000E+000	4.57001E-001	0.00000E+000	8	...........	0
	968	96.9	4.68254E-001	1.74565E-005	0.00000E+000	4.68001E-001	0.00000E+000	8	...........	0
	979	98	4.79165E-001	1.77698E-005	0.00000E+000	4.79002E-001	0.00000E+000	8	...........	0
	990	99.1	4.90276E-001	1.84699E-005	0.00000E+000	4.90002E-001	0.00000E+000	8	...........	0
	1001	100.2	5.01287E-001	1.87566E-005	0.00000E+000	5.01002E-001	0.00000E+000	8	...........	0
	1012	101.3	5.12298E-001	1.83599E-005	0.00000E+000	5.12003E-001	0.00000E+000	8	...........	0
	1023	102.4	5.23209E-001	1.82165E-005	0.00000E+000	5.23003E-001	0.00000E+000	8	...........	0
	1034	103.5	5.34220E-001	1.90166E-005	0.00000E+000	5.34004E-001	0.00000E+000	8	...........	0
	1045	104.6	5.45331E-001	1.94933E-005	0.00000E+000	5.45004E-001	0.00000E+000	8	...........	0
	1056	105.7	5.56242E-001	1.91466E-005	0.00000E+000	5.56005E-001	0.00000E+000	8	...........	0
	1067	106.8	5.67153E-001	1.96433E-005	0.00000E+000	5.67005E-001	0.00000E+000	8	...........	0
	1078	107.9	5.78264E-001	2.05367E-005	0.00000E+000	5.78006E-001	0.00000E+000	8	...........	0
	1089	109	5.89275E-001	2.10167E-005	0.00000E+000	5.89006E-001	0.00000E+000	8	...........	0
	1100	110.1	6.00286E-001	2.03700E-005	0.00000E+000	6.00006E-001	0.00000E+000	8	...........	0