Folder: DataAnalysis/LSV ZFO (part 6)

File: ZFO_h200_light.DTA
EXPLAIN
TAG	LSV
TITLE	LABEL	Linear Sweep Voltammetry	Test &Identifier
DATE	LABEL	7/5/2024	Date
TIME	LABEL	16:24:48	Time
NOTES	NOTES	1	&Notes...

PSTAT	PSTAT	L3FNano	Potentiostat
VINIT	POTEN	-5.00000E-001	F	&Initial E (V)
VFINAL	POTEN	6.00000E-001	F	&Final E (V)
SCANRATE	QUANT	9.99998E+000	&Scan Rate (mV/s)
STEPSIZE	QUANT	1.00000E+000	St&ep Size (mV)
IMODE	SELECTOR	0	I/E Range &Mode
IRANGE	QUANT	1.00000E+001	&Max Current (mA)
AREA	QUANT	1.00000E+000	Electrode &Area (cm^2)
ELECTRODETYPE	SELECTOR	0	Electrode Type
STRIPPING	TOGGLE	F	Used for Stripping
POLARITY	TOGGLE	F	Signal Polarity
CONDIT	TWOPARAM	F	1.50000E+001	0.00000E+000	Conditionin&g	Time(s)	E(V)
DELAY	TWOPARAM	F	3.00000E+001	0.00000E+000	Init. De&lay	Time(s)	Stab.(mV/s)
EQDELAY	QUANT	5.00000E+000	Equil. &Time (s)
IRCOMP	SELECTOR	0	IRCom&p
PFCOR	QUANT	5.00000E+001	PF Corr. (ohm)
SAMPLINGMODE	SELECTOR	0	Sampling &Mode
EOC	QUANT	0	Open Circuit (V)
PSTATMODEL	IQUANT	48	Pstat Model
PSTATSECTION	LABEL	IFC1000-07082	Pstat Section
PSTATSERIALNO	LABEL	07082	Pstat Serial Number
CTRLMODE	IQUANT	1	Control Mode
IESTAB	IQUANT	2	I/E Stability
CASPEED	IQUANT	2	Control Amp Speed
CONVENTION	IQUANT	1	Current Convention
ICHRANGE	IQUANT	2	Ich Range
ICHRANGEMODE	TOGGLE	F	Ich Auto Range
ICHOFFSETENABLE	TOGGLE	F	Ich Offset Enable
ICHOFFSET	QUANT	0	Ich Offset (V)
ICHFILTER	IQUANT	3	Ich Filter
VCHRANGE	IQUANT	2	Vch Range
VCHRANGEMODE	TOGGLE	T	Vch Auto Range
VCHOFFSETENABLE	TOGGLE	F	Vch Offset Enable
VCHOFFSET	QUANT	0	Vch Offset (V)
VCHFILTER	IQUANT	3	Vch Filter
IERANGELOWERLIMIT	IQUANT	4	I/E Range Lower Limit
IERANGEMODE	TOGGLE	T	I/E AutoRange
IERANGE	IQUANT	11	I/E Range
ACHSELECT	IQUANT	4	Ach Select
CABLEID	IQUANT	14	Cable ID
DCCALDATE	LABEL	7/3/2024	DC Calibration Date
ACCALDATE	LABEL	7/3/2024	AC Calibration Date
FRAMEWORKVERSION	QUANT	6.24	Framework Version
INSTRUMENTVERSION	LABEL	3.28	Instrument Version
CURVE	TABLE	1101
	Pt	T	Vf	Im	Vu	Sig	Ach	IERange	Over	Cycle
	#	s	V vs. Ref.	A	V	V	V	#	bits	#
	0	0.1	-4.99909E-001	-1.39019E-006	0.00000E+000	-4.99988E-001	0.00000E+000	11	...........	0
	11	1.2	-4.88899E-001	-5.08454E-006	0.00000E+000	-4.88988E-001	0.00000E+000	7	...........	0
	22	2.3	-4.77888E-001	-4.26664E-006	0.00000E+000	-4.77988E-001	0.00000E+000	7	...........	0
	33	3.4	-4.66977E-001	-3.30105E-006	0.00000E+000	-4.66987E-001	0.00000E+000	7	...........	0
	44	4.5	-4.55966E-001	-2.78720E-004	0.00000E+000	-4.55987E-001	0.00000E+000	9	...........	0
	55	5.6	-4.44955E-001	-1.64621E-004	0.00000E+000	-4.44986E-001	0.00000E+000	9	...........	0
	66	6.7	-4.33944E-001	-1.14912E-004	0.00000E+000	-4.33986E-001	0.00000E+000	9	...........	0
	77	7.8	-4.22933E-001	-8.36491E-005	0.00000E+000	-4.22985E-001	0.00000E+000	9	...........	0
	88	8.9	-4.11922E-001	-6.04423E-005	0.00000E+000	-4.11985E-001	0.00000E+000	8	...........	0
	99	10	-4.00911E-001	-4.31011E-005	0.00000E+000	-4.00984E-001	0.00000E+000	8	...........	0
	110	11.1	-3.89900E-001	-2.98001E-005	0.00000E+000	-3.89984E-001	0.00000E+000	8	...........	0
	121	12.2	-3.78889E-001	-1.88827E-005	0.00000E+000	-3.78984E-001	0.00000E+000	8	...........	0
	132	13.3	-3.67978E-001	-9.86875E-006	0.00000E+000	-3.67983E-001	0.00000E+000	8	...........	0
	143	14.4	-3.56967E-001	-2.61752E-006	0.00000E+000	-3.56983E-001	0.00000E+000	7	...........	0
	154	15.5	-3.45956E-001	3.02503E-006	0.00000E+000	-3.45982E-001	0.00000E+000	7	...........	0
	165	16.6	-3.34945E-001	8.94198E-006	0.00000E+000	-3.34982E-001	0.00000E+000	7	...........	0
	176	17.7	-3.23934E-001	1.27028E-005	0.00000E+000	-3.23981E-001	0.00000E+000	8	...........	0
	187	18.8	-3.12923E-001	1.64998E-005	0.00000E+000	-3.12981E-001	0.00000E+000	8	...........	0
	198	19.9	-3.01912E-001	2.03934E-005	0.00000E+000	-3.01980E-001	0.00000E+000	8	...........	0
	209	21	-2.90901E-001	2.30769E-005	0.00000E+000	-2.90980E-001	0.00000E+000	8	...........	0
	220	22.1	-2.79890E-001	2.53770E-005	0.00000E+000	-2.79979E-001	0.00000E+000	8	...........	0
	231	23.2	-2.68880E-001	2.86406E-005	0.00000E+000	-2.68979E-001	0.00000E+000	8	...........	0
	242	24.3	-2.57969E-001	2.98240E-005	0.00000E+000	-2.57979E-001	0.00000E+000	8	...........	0
	253	25.4	-2.46858E-001	3.23342E-005	0.00000E+000	-2.46978E-001	0.00000E+000	8	...........	0
	264	26.5	-2.35887E-001	3.36176E-005	0.00000E+000	-2.35978E-001	0.00000E+000	8	...........	0
	275	27.6	-2.24876E-001	3.47277E-005	0.00000E+000	-2.24977E-001	0.00000E+000	8	...........	0
	286	28.7	-2.13905E-001	3.58178E-005	0.00000E+000	-2.13977E-001	0.00000E+000	8	...........	0
	297	29.8	-2.02904E-001	3.71045E-005	0.00000E+000	-2.02976E-001	0.00000E+000	8	...........	0
	308	30.9	-1.91893E-001	3.88747E-005	0.00000E+000	-1.91976E-001	0.00000E+000	8	...........	0
	319	32	-1.80892E-001	3.85646E-005	0.00000E+000	-1.80975E-001	0.00000E+000	8	...........	0
	330	33.1	-1.69902E-001	3.95147E-005	0.00000E+000	-1.69975E-001	0.00000E+000	8	...........	0
	341	34.2	-1.58951E-001	4.02681E-005	0.00000E+000	-1.59025E-001	0.00000E+000	8	...........	0
	352	35.3	-1.47970E-001	4.15915E-005	0.00000E+000	-1.48024E-001	0.00000E+000	8	...........	0
	363	36.4	-1.36989E-001	4.17615E-005	0.00000E+000	-1.37024E-001	0.00000E+000	8	...........	0
	374	37.5	-1.25988E-001	4.38517E-005	0.00000E+000	-1.26023E-001	0.00000E+000	8	...........	0
	385	38.6	-1.14987E-001	4.25782E-005	0.00000E+000	-1.15023E-001	0.00000E+000	8	...........	0
	396	39.7	-1.03986E-001	4.45584E-005	0.00000E+000	-1.04022E-001	0.00000E+000	8	...........	0
	407	40.8	-9.29949E-002	4.48851E-005	0.00000E+000	-9.30219E-002	0.00000E+000	8	...........	0
	418	41.9	-8.19840E-002	4.48317E-005	0.00000E+000	-8.20214E-002	0.00000E+000	8	...........	0
	429	43	-7.10031E-002	4.42317E-005	0.00000E+000	-7.10210E-002	0.00000E+000	8	...........	0
	440	44.1	-5.99921E-002	4.42217E-005	0.00000E+000	-6.00205E-002	0.00000E+000	8	...........	0
	451	45.2	-4.89711E-002	4.55051E-005	0.00000E+000	-4.90201E-002	0.00000E+000	8	...........	0
	462	46.3	-3.79802E-002	4.70952E-005	0.00000E+000	-3.80196E-002	0.00000E+000	8	...........	0
	473	47.4	-2.69792E-002	4.77919E-005	0.00000E+000	-2.70192E-002	0.00000E+000	8	...........	0
	484	48.5	-1.59770E-002	4.68252E-005	0.00000E+000	-1.60187E-002	0.00000E+000	8	...........	0
	495	49.6	-4.98211E-003	4.74386E-005	0.00000E+000	-5.01826E-003	0.00000E+000	8	...........	0
	506	50.7	5.99782E-003	4.86587E-005	0.00000E+000	5.98219E-003	0.00000E+000	8	...........	0
	517	51.8	1.70158E-002	5.17122E-005	0.00000E+000	1.69826E-002	0.00000E+000	8	...........	0
	528	52.9	2.80155E-002	5.34557E-005	0.00000E+000	2.79831E-002	0.00000E+000	8	...........	0
	539	54	3.90265E-002	5.28890E-005	0.00000E+000	3.89835E-002	0.00000E+000	8	...........	0
	550	55.1	5.00174E-002	5.48024E-005	0.00000E+000	4.99840E-002	0.00000E+000	8	...........	0
	561	56.2	6.09983E-002	5.88427E-005	0.00000E+000	6.09844E-002	0.00000E+000	8	...........	0
	572	57.3	7.19993E-002	6.28263E-005	0.00000E+000	7.19849E-002	0.00000E+000	8	...........	0
	583	58.4	8.30203E-002	6.51932E-005	0.00000E+000	8.29853E-002	0.00000E+000	8	...........	0
	594	59.5	9.40112E-002	6.88567E-005	0.00000E+000	9.39858E-002	0.00000E+000	8	...........	0
	605	60.6	1.05012E-001	7.56506E-005	0.00000E+000	1.04986E-001	0.00000E+000	8	...........	0
	616	61.7	1.16013E-001	7.71240E-005	0.00000E+000	1.15987E-001	0.00000E+000	8	...........	0
	627	62.8	1.26994E-001	8.19477E-005	0.00000E+000	1.26987E-001	0.00000E+000	8	...........	0
[...]
	671	67.2	1.71008E-001	1.00501E-004	0.00000E+000	1.70989E-001	0.00000E+000	9	...........	0
	682	68.3	1.82019E-001	1.07360E-004	0.00000E+000	1.81989E-001	0.00000E+000	9	...........	0
	693	69.4	1.92990E-001	1.09957E-004	0.00000E+000	1.92990E-001	0.00000E+000	9	...........	0
	704	70.5	2.04001E-001	1.17715E-004	0.00000E+000	2.03990E-001	0.00000E+000	9	...........	0
	715	71.6	2.15022E-001	1.18980E-004	0.00000E+000	2.14991E-001	0.00000E+000	9	...........	0
	726	72.7	2.25993E-001	1.22409E-004	0.00000E+000	2.25991E-001	0.00000E+000	9	...........	0
	737	73.8	2.37014E-001	1.28169E-004	0.00000E+000	2.36992E-001	0.00000E+000	9	...........	0
	748	74.9	2.47974E-001	1.35860E-004	0.00000E+000	2.47992E-001	0.00000E+000	9	...........	0
	759	76	2.58965E-001	1.37558E-004	0.00000E+000	2.58993E-001	0.00000E+000	9	...........	0
	770	77.1	2.70157E-001	1.44816E-004	0.00000E+000	2.69993E-001	0.00000E+000	9	...........	0
	781	78.2	2.81168E-001	1.51309E-004	0.00000E+000	2.80993E-001	0.00000E+000	9	...........	0
	792	79.3	2.92179E-001	1.54372E-004	0.00000E+000	2.91994E-001	0.00000E+000	9	...........	0
	803	80.4	3.03190E-001	1.57235E-004	0.00000E+000	3.02994E-001	0.00000E+000	9	...........	0
	814	81.5	3.14101E-001	1.63061E-004	0.00000E+000	3.13995E-001	0.00000E+000	9	...........	0
	825	82.6	3.25212E-001	1.69720E-004	0.00000E+000	3.24995E-001	0.00000E+000	9	...........	0
	836	83.7	3.36223E-001	1.72850E-004	0.00000E+000	3.35996E-001	0.00000E+000	9	...........	0
	847	84.8	3.47234E-001	1.80508E-004	0.00000E+000	3.46996E-001	0.00000E+000	9	...........	0
	858	85.9	3.58145E-001	1.85269E-004	0.00000E+000	3.57997E-001	0.00000E+000	9	...........	0
	869	87	3.69156E-001	1.89930E-004	0.00000E+000	3.68997E-001	0.00000E+000	9	...........	0
	880	88.1	3.80267E-001	1.95823E-004	0.00000E+000	3.79997E-001	0.00000E+000	9	...........	0
	891	89.2	3.91177E-001	2.07642E-004	0.00000E+000	3.90998E-001	0.00000E+000	9	...........	0
	902	90.3	4.02188E-001	2.09973E-004	0.00000E+000	4.01998E-001	0.00000E+000	9	...........	0
	913	91.4	4.13199E-001	2.23124E-004	0.00000E+000	4.12999E-001	0.00000E+000	9	...........	0
	924	92.5	4.24210E-001	2.28818E-004	0.00000E+000	4.23999E-001	0.00000E+000	9	...........	0
	935	93.6	4.35221E-001	2.35177E-004	0.00000E+000	4.35000E-001	0.00000E+000	9	...........	0
	946	94.7	4.46232E-001	2.50426E-004	0.00000E+000	4.46000E-001	0.00000E+000	9	...........	0
	957	95.8	4.57243E-001	2.62112E-004	0.00000E+000	4.57001E-001	0.00000E+000	9	...........	0
	968	96.9	4.68254E-001	2.73465E-004	0.00000E+000	4.68001E-001	0.00000E+000	9	...........	0
	979	98	4.79265E-001	2.96272E-004	0.00000E+000	4.79002E-001	0.00000E+000	9	...........	0
	990	99.1	4.90276E-001	3.26969E-004	0.00000E+000	4.90002E-001	0.00000E+000	9	...........	0
	1001	100.2	5.01187E-001	3.84235E-004	0.00000E+000	5.01002E-001	0.00000E+000	9	...........	0
	1012	101.3	5.12198E-001	4.72532E-004	0.00000E+000	5.12003E-001	0.00000E+000	9	...........	0
	1023	102.4	5.23209E-001	5.68286E-004	0.00000E+000	5.23003E-001	0.00000E+000	9	...........	0
	1034	103.5	5.34120E-001	6.64739E-004	0.00000E+000	5.34004E-001	0.00000E+000	9	...........	0
	1045	104.6	5.45231E-001	7.77374E-004	0.00000E+000	5.45004E-001	0.00000E+000	9	...........	0
	1056	105.7	5.56142E-001	8.95569E-004	0.00000E+000	5.56005E-001	0.00000E+000	9	...........	0
	1067	106.8	5.67253E-001	1.01269E-003	0.00000E+000	5.67005E-001	0.00000E+000	10	...........	0
	1078	107.9	5.78264E-001	1.13912E-003	0.00000E+000	5.78006E-001	0.00000E+000	10	...........	0
	1089	109	5.89275E-001	1.25727E-003	0.00000E+000	5.89006E-001	0.00000E+000	10	...........	0
	1100	110.1	6.00186E-001	1.38038E-003	0.00000E+000	6.00006E-001	0.00000E+000	10	...........	0

File: ZFO_h200_light_reator2.DTA
EXPLAIN
TAG	LSV
TITLE	LABEL	Linear Sweep Voltammetry	Test &Identifier
DATE	LABEL	7/5/2024	Date
TIME	LABEL	18:10:10	Time
NOTES	NOTES	1	&Notes...

PSTAT	PSTAT	L3FNano	Potentiostat
VINIT	POTEN	-5.00000E-001	F	&Initial E (V)
VFINAL	POTEN	6.00000E-001	F	&Final E (V)
SCANRATE	QUANT	9.99998E+000	&Scan Rate (mV/s)
STEPSIZE	QUANT	1.00000E+000	St&ep Size (mV)
IMODE	SELECTOR	0	I/E Range &Mode
IRANGE	QUANT	1.00000E+001	&Max Current (mA)
AREA	QUANT	1.00000E+000	Electrode &Area (cm^2)
ELECTRODETYPE	SELECTOR	0	Electrode Type
STRIPPING	TOGGLE	F	Used for Stripping
POLARITY	TOGGLE	F	Signal Polarity
CONDIT	TWOPARAM	F	1.50000E+001	0.00000E+000	Conditionin&g	Time(s)	E(V)
DELAY	TWOPARAM	F	3.00000E+001	0.00000E+000	Init. De&lay	Time(s)	Stab.(mV/s)
EQDELAY	QUANT	5.00000E+000	Equil. &Time (s)
IRCOMP	SELECTOR	0	IRCom&p
PFCOR	QUANT	5.00000E+001	PF Corr. (ohm)
SAMPLINGMODE	SELECTOR	0	Sampling &Mode
EOC	QUANT	0	Open Circuit (V)
PSTATMODEL	IQUANT	48	Pstat Model
PSTATSECTION	LABEL	IFC1000-07082	Pstat Section
PSTATSERIALNO	LABEL	07082	Pstat Serial Number
CTRLMODE	IQUANT	1	Control Mode
IESTAB	IQUANT	2	I/E Stability
CASPEED	IQUANT	2	Control Amp Speed
CONVENTION	IQUANT	1	Current Convention
ICHRANGE	IQUANT	2	Ich Range
ICHRANGEMODE	TOGGLE	F	Ich Auto Range
ICHOFFSETENABLE	TOGGLE	F	Ich Offset Enable
ICHOFFSET	QUANT	0	Ich Offset (V)
ICHFILTER	IQUANT	3	Ich Filter
VCHRANGE	IQUANT	2	Vch Range
VCHRANGEMODE	TOGGLE	T	Vch Auto Range
VCHOFFSETENABLE	TOGGLE	F	Vch Offset Enable
VCHOFFSET	QUANT	0	Vch Offset (V)
VCHFILTER	IQUANT	3	Vch Filter
IERANGELOWERLIMIT	IQUANT	4	I/E Range Lower Limit
IERANGEMODE	TOGGLE	T	I/E AutoRange
IERANGE	IQUANT	11	I/E Range
ACHSELECT	IQUANT	4	Ach Select
CABLEID	IQUANT	14	Cable ID
DCCALDATE	LABEL	7/3/2024	DC Calibration Date
ACCALDATE	LABEL	7/3/2024	AC Calibration Date
FRAMEWORKVERSION	QUANT	6.24	Framework Version
INSTRUMENTVERSION	LABEL	3.28	Instrument Version
CURVE	TABLE	1101
	Pt	T	Vf	Im	Vu	Sig	Ach	IERange	Over	Cycle
	#	s	V vs. Ref.	A	V	V	V	#	bits	#
	0	0.1	-5.00010E-001	-8.04466E-006	0.00000E+000	-4.99988E-001	0.00000E+000	11	...........	0
	11	1.2	-4.89099E-001	-7.58489E-006	0.00000E+000	-4.88988E-001	0.00000E+000	7	...........	0
	22	2.3	-4.77988E-001	-5.39962E-006	0.00000E+000	-4.77988E-001	0.00000E+000	7	...........	0
	33	3.4	-4.67077E-001	-4.46403E-006	0.00000E+000	-4.66987E-001	0.00000E+000	7	...........	0
	44	4.5	-4.55966E-001	-3.97356E-006	0.00000E+000	-4.55987E-001	0.00000E+000	7	...........	0
	55	5.6	-4.44955E-001	-3.03097E-006	0.00000E+000	-4.44986E-001	0.00000E+000	7	...........	0
	66	6.7	-4.34044E-001	-1.90600E-006	0.00000E+000	-4.33986E-001	0.00000E+000	7	...........	0
	77	7.8	-4.23033E-001	-2.11839E-006	0.00000E+000	-4.22985E-001	0.00000E+000	7	...........	0
	88	8.9	-4.12022E-001	-1.30183E-006	0.00000E+000	-4.11985E-001	0.00000E+000	7	...........	0
	99	10	-4.01011E-001	-6.07639E-007	0.00000E+000	-4.00984E-001	0.00000E+000	7	...........	0
	110	11.1	-3.90100E-001	-9.86410E-007	0.00000E+000	-3.89984E-001	0.00000E+000	7	...........	0
	121	12.2	-3.78989E-001	-2.65212E-007	0.00000E+000	-3.78984E-001	0.00000E+000	7	...........	0
	132	13.3	-3.67978E-001	4.12974E-007	0.00000E+000	-3.67983E-001	0.00000E+000	7	...........	0
	143	14.4	-3.57067E-001	-3.74909E-007	0.00000E+000	-3.56983E-001	0.00000E+000	7	...........	0
	154	15.5	-3.45956E-001	4.27978E-007	0.00000E+000	-3.45982E-001	0.00000E+000	7	...........	0
	165	16.6	-3.35045E-001	9.84131E-007	0.00000E+000	-3.34982E-001	0.00000E+000	7	...........	0
	176	17.7	-3.23934E-001	4.87995E-007	0.00000E+000	-3.23981E-001	0.00000E+000	7	...........	0
	187	18.8	-3.13023E-001	6.58788E-008	0.00000E+000	-3.12981E-001	0.00000E+000	7	...........	0
	198	19.9	-3.02013E-001	1.24520E-006	0.00000E+000	-3.01980E-001	0.00000E+000	7	...........	0
	209	21	-2.91002E-001	1.49427E-006	0.00000E+000	-2.90980E-001	0.00000E+000	7	...........	0
	220	22.1	-2.79991E-001	1.13251E-006	0.00000E+000	-2.79979E-001	0.00000E+000	7	...........	0
	231	23.2	-2.68980E-001	1.10483E-006	0.00000E+000	-2.68979E-001	0.00000E+000	7	...........	0
	242	24.3	-2.58069E-001	1.93139E-006	0.00000E+000	-2.57979E-001	0.00000E+000	7	...........	0
	253	25.4	-2.47058E-001	2.13011E-006	0.00000E+000	-2.46978E-001	0.00000E+000	7	...........	0
	264	26.5	-2.35897E-001	1.46126E-006	0.00000E+000	-2.35978E-001	0.00000E+000	7	...........	0
	275	27.6	-2.24916E-001	1.10416E-006	0.00000E+000	-2.24977E-001	0.00000E+000	7	...........	0
	286	28.7	-2.13925E-001	2.64192E-006	0.00000E+000	-2.13977E-001	0.00000E+000	7	...........	0
	297	29.8	-2.02934E-001	1.72167E-006	0.00000E+000	-2.02976E-001	0.00000E+000	7	...........	0
	308	30.9	-1.91933E-001	2.89866E-006	0.00000E+000	-1.91976E-001	0.00000E+000	7	...........	0
	319	32	-1.80902E-001	1.70200E-006	0.00000E+000	-1.80975E-001	0.00000E+000	7	...........	0
	330	33.1	-1.69922E-001	3.09504E-006	0.00000E+000	-1.69975E-001	0.00000E+000	7	...........	0
	341	34.2	-1.58951E-001	1.97107E-006	0.00000E+000	-1.59025E-001	0.00000E+000	7	...........	0
	352	35.3	-1.48020E-001	2.05809E-006	0.00000E+000	-1.48024E-001	0.00000E+000	7	...........	0
	363	36.4	-1.37019E-001	4.69315E-006	0.00000E+000	-1.37024E-001	0.00000E+000	7	...........	0
	374	37.5	-1.26028E-001	3.45614E-006	0.00000E+000	-1.26023E-001	0.00000E+000	7	...........	0
	385	38.6	-1.15037E-001	3.36579E-006	0.00000E+000	-1.15023E-001	0.00000E+000	7	...........	0
	396	39.7	-1.03996E-001	4.53111E-006	0.00000E+000	-1.04022E-001	0.00000E+000	7	...........	0
	407	40.8	-9.30350E-002	6.29659E-006	0.00000E+000	-9.30219E-002	0.00000E+000	7	...........	0
	418	41.9	-8.20140E-002	4.81152E-006	0.00000E+000	-8.20214E-002	0.00000E+000	7	...........	0
	429	43	-7.10031E-002	4.62080E-006	0.00000E+000	-7.10210E-002	0.00000E+000	7	...........	0
	440	44.1	-6.00422E-002	7.48492E-006	0.00000E+000	-6.00205E-002	0.00000E+000	7	...........	0
	451	45.2	-4.90312E-002	8.68758E-006	0.00000E+000	-4.90201E-002	0.00000E+000	7	...........	0
	462	46.3	-3.80102E-002	1.00766E-005	0.00000E+000	-3.80196E-002	0.00000E+000	7	...........	0
	473	47.4	-2.70193E-002	8.26585E-006	0.00000E+000	-2.70192E-002	0.00000E+000	8	...........	0
	484	48.5	-1.60121E-002	1.06160E-005	0.00000E+000	-1.60187E-002	0.00000E+000	8	...........	0
	495	49.6	-5.04217E-003	1.51563E-005	0.00000E+000	-5.01826E-003	0.00000E+000	8	...........	0
	506	50.7	5.98981E-003	1.39529E-005	0.00000E+000	5.98219E-003	0.00000E+000	8	...........	0
	517	51.8	1.69657E-002	1.90299E-005	0.00000E+000	1.69826E-002	0.00000E+000	8	...........	0
	528	52.9	2.80055E-002	2.27202E-005	0.00000E+000	2.79831E-002	0.00000E+000	8	...........	0
	539	54	3.89664E-002	2.29235E-005	0.00000E+000	3.89835E-002	0.00000E+000	8	...........	0
	550	55.1	4.99874E-002	2.57771E-005	0.00000E+000	4.99840E-002	0.00000E+000	8	...........	0
	561	56.2	6.09883E-002	2.94007E-005	0.00000E+000	6.09844E-002	0.00000E+000	8	...........	0
	572	57.3	7.19793E-002	3.42543E-005	0.00000E+000	7.19849E-002	0.00000E+000	8	...........	0
	583	58.4	8.29802E-002	3.91313E-005	0.00000E+000	8.29853E-002	0.00000E+000	8	...........	0
	594	59.5	9.40012E-002	3.94480E-005	0.00000E+000	9.39858E-002	0.00000E+000	8	...........	0
	605	60.6	1.04972E-001	4.49851E-005	0.00000E+000	1.04986E-001	0.00000E+000	8	...........	0
	616	61.7	1.15973E-001	4.86087E-005	0.00000E+000	1.15987E-001	0.00000E+000	8	...........	0
	627	62.8	1.26944E-001	4.99921E-005	0.00000E+000	1.26987E-001	0.00000E+000	8	...........	0
[...]
	671	67.2	1.70948E-001	6.02762E-005	0.00000E+000	1.70989E-001	0.00000E+000	8	...........	0
	682	68.3	1.81979E-001	6.24863E-005	0.00000E+000	1.81989E-001	0.00000E+000	8	...........	0
	693	69.4	1.92930E-001	6.81167E-005	0.00000E+000	1.92990E-001	0.00000E+000	8	...........	0
	704	70.5	2.03991E-001	7.04469E-005	0.00000E+000	2.03990E-001	0.00000E+000	8	...........	0
	715	71.6	2.14952E-001	6.96568E-005	0.00000E+000	2.14991E-001	0.00000E+000	8	...........	0
	726	72.7	2.25953E-001	7.26870E-005	0.00000E+000	2.25991E-001	0.00000E+000	8	...........	0
	737	73.8	2.36943E-001	7.62939E-005	0.00000E+000	2.36992E-001	0.00000E+000	8	...........	0
	748	74.9	2.47944E-001	7.65439E-005	0.00000E+000	2.47992E-001	0.00000E+000	8	...........	0
	759	76	2.58915E-001	7.65773E-005	0.00000E+000	2.58993E-001	0.00000E+000	8	...........	0
	770	77.1	2.70157E-001	8.27144E-005	0.00000E+000	2.69993E-001	0.00000E+000	8	...........	0
	781	78.2	2.81068E-001	8.02975E-005	0.00000E+000	2.80993E-001	0.00000E+000	8	...........	0
	792	79.3	2.92079E-001	8.56146E-005	0.00000E+000	2.91994E-001	0.00000E+000	8	...........	0
	803	80.4	3.03090E-001	8.50979E-005	0.00000E+000	3.02994E-001	0.00000E+000	8	...........	0
	814	81.5	3.14101E-001	8.52194E-005	0.00000E+000	3.13995E-001	0.00000E+000	9	...........	0
	825	82.6	3.25112E-001	9.07463E-005	0.00000E+000	3.24995E-001	0.00000E+000	9	...........	0
	836	83.7	3.36123E-001	9.06131E-005	0.00000E+000	3.35996E-001	0.00000E+000	9	...........	0
	847	84.8	3.47134E-001	9.02136E-005	0.00000E+000	3.46996E-001	0.00000E+000	9	...........	0
	858	85.9	3.58044E-001	9.18783E-005	0.00000E+000	3.57997E-001	0.00000E+000	9	...........	0
	869	87	3.69055E-001	9.71055E-005	0.00000E+000	3.68997E-001	0.00000E+000	9	...........	0
	880	88.1	3.79966E-001	9.49413E-005	0.00000E+000	3.79997E-001	0.00000E+000	9	...........	0
	891	89.2	3.91177E-001	9.97024E-005	0.00000E+000	3.90998E-001	0.00000E+000	9	...........	0
	902	90.3	4.02088E-001	9.83374E-005	0.00000E+000	4.01998E-001	0.00000E+000	9	...........	0
	913	91.4	4.13199E-001	1.02566E-004	0.00000E+000	4.12999E-001	0.00000E+000	9	...........	0
	924	92.5	4.24110E-001	1.03931E-004	0.00000E+000	4.23999E-001	0.00000E+000	9	...........	0
	935	93.6	4.35121E-001	1.00868E-004	0.00000E+000	4.35000E-001	0.00000E+000	9	...........	0
	946	94.7	4.46132E-001	1.02899E-004	0.00000E+000	4.46000E-001	0.00000E+000	9	...........	0
	957	95.8	4.57043E-001	1.08925E-004	0.00000E+000	4.57001E-001	0.00000E+000	9	...........	0
	968	96.9	4.68154E-001	1.07693E-004	0.00000E+000	4.68001E-001	0.00000E+000	9	...........	0
	979	98	4.79065E-001	1.07560E-004	0.00000E+000	4.79002E-001	0.00000E+000	9	...........	0
	990	99.1	4.90176E-001	1.10290E-004	0.00000E+000	4.90002E-001	0.00000E+000	9	...........	0
	1001	100.2	5.01087E-001	1.09058E-004	0.00000E+000	5.01002E-001	0.00000E+000	9	...........	0
	1012	101.3	5.12098E-001	1.09391E-004	0.00000E+000	5.12003E-001	0.00000E+000	9	...........	0
	1023	102.4	5.23209E-001	1.15650E-004	0.00000E+000	5.23003E-001	0.00000E+000	9	...........	0
	1034	103.5	5.34220E-001	1.11955E-004	0.00000E+000	5.34004E-001	0.00000E+000	9	...........	0
	1045	104.6	5.45131E-001	1.13553E-004	0.00000E+000	5.45004E-001	0.00000E+000	9	...........	0
	1056	105.7	5.56142E-001	1.16682E-004	0.00000E+000	5.56005E-001	0.00000E+000	9	...........	0
	1067	106.8	5.67153E-001	1.17015E-004	0.00000E+000	5.67005E-001	0.00000E+000	9	...........	0
	1078	107.9	5.78164E-001	1.16050E-004	0.00000E+000	5.78006E-001	0.00000E+000	9	...........	0
	1089	109	5.89175E-001	1.17814E-004	0.00000E+000	5.89006E-001	0.00000E+000	9	...........	0
	1100	110.1	6.00186E-001	1.23375E-004	0.00000E+000	6.00006E-001	0.00000E+000	9	...........	0