Folder: DataAnalysis/LSV ZFO (part 5)

File: ZFO_h200_dark_reator.DTA
EXPLAIN
TAG	LSV
TITLE	LABEL	Linear Sweep Voltammetry	Test &Identifier
DATE	LABEL	7/5/2024	Date
TIME	LABEL	18:02:21	Time
NOTES	NOTES	1	&Notes...

PSTAT	PSTAT	L3FNano	Potentiostat
VINIT	POTEN	-5.00000E-001	F	&Initial E (V)
VFINAL	POTEN	6.00000E-001	F	&Final E (V)
SCANRATE	QUANT	9.99998E+000	&Scan Rate (mV/s)
STEPSIZE	QUANT	1.00000E+000	St&ep Size (mV)
IMODE	SELECTOR	0	I/E Range &Mode
IRANGE	QUANT	1.00000E+001	&Max Current (mA)
AREA	QUANT	1.00000E+000	Electrode &Area (cm^2)
ELECTRODETYPE	SELECTOR	0	Electrode Type
STRIPPING	TOGGLE	F	Used for Stripping
POLARITY	TOGGLE	F	Signal Polarity
CONDIT	TWOPARAM	F	1.50000E+001	0.00000E+000	Conditionin&g	Time(s)	E(V)
DELAY	TWOPARAM	F	3.00000E+001	0.00000E+000	Init. De&lay	Time(s)	Stab.(mV/s)
EQDELAY	QUANT	5.00000E+000	Equil. &Time (s)
IRCOMP	SELECTOR	0	IRCom&p
PFCOR	QUANT	5.00000E+001	PF Corr. (ohm)
SAMPLINGMODE	SELECTOR	0	Sampling &Mode
EOC	QUANT	0	Open Circuit (V)
PSTATMODEL	IQUANT	48	Pstat Model
PSTATSECTION	LABEL	IFC1000-07082	Pstat Section
PSTATSERIALNO	LABEL	07082	Pstat Serial Number
CTRLMODE	IQUANT	1	Control Mode
IESTAB	IQUANT	2	I/E Stability
CASPEED	IQUANT	2	Control Amp Speed
CONVENTION	IQUANT	1	Current Convention
ICHRANGE	IQUANT	2	Ich Range
ICHRANGEMODE	TOGGLE	F	Ich Auto Range
ICHOFFSETENABLE	TOGGLE	F	Ich Offset Enable
ICHOFFSET	QUANT	0	Ich Offset (V)
ICHFILTER	IQUANT	3	Ich Filter
VCHRANGE	IQUANT	2	Vch Range
VCHRANGEMODE	TOGGLE	T	Vch Auto Range
VCHOFFSETENABLE	TOGGLE	F	Vch Offset Enable
VCHOFFSET	QUANT	0	Vch Offset (V)
VCHFILTER	IQUANT	3	Vch Filter
IERANGELOWERLIMIT	IQUANT	4	I/E Range Lower Limit
IERANGEMODE	TOGGLE	T	I/E AutoRange
IERANGE	IQUANT	11	I/E Range
ACHSELECT	IQUANT	4	Ach Select
CABLEID	IQUANT	14	Cable ID
DCCALDATE	LABEL	7/3/2024	DC Calibration Date
ACCALDATE	LABEL	7/3/2024	AC Calibration Date
FRAMEWORKVERSION	QUANT	6.24	Framework Version
INSTRUMENTVERSION	LABEL	3.28	Instrument Version
CURVE	TABLE	1101
	Pt	T	Vf	Im	Vu	Sig	Ach	IERange	Over	Cycle
	#	s	V vs. Ref.	A	V	V	V	#	bits	#
	0	0.1	-5.00110E-001	-4.71743E-006	0.00000E+000	-4.99988E-001	0.00000E+000	11	...........	0
	11	1.2	-4.88999E-001	-6.43224E-006	0.00000E+000	-4.88988E-001	0.00000E+000	7	...........	0
	22	2.3	-4.78188E-001	-5.44730E-006	0.00000E+000	-4.77988E-001	0.00000E+000	7	...........	0
	33	3.4	-4.66977E-001	-4.57573E-006	0.00000E+000	-4.66987E-001	0.00000E+000	7	...........	0
	44	4.5	-4.55966E-001	-4.04892E-006	0.00000E+000	-4.55987E-001	0.00000E+000	7	...........	0
	55	5.6	-4.45055E-001	-3.41841E-006	0.00000E+000	-4.44986E-001	0.00000E+000	7	...........	0
	66	6.7	-4.34044E-001	-2.75123E-006	0.00000E+000	-4.33986E-001	0.00000E+000	7	...........	0
	77	7.8	-4.23033E-001	-2.36679E-006	0.00000E+000	-4.22985E-001	0.00000E+000	7	...........	0
	88	8.9	-4.12022E-001	-1.98969E-006	0.00000E+000	-4.11985E-001	0.00000E+000	7	...........	0
	99	10	-4.01011E-001	-1.68894E-006	0.00000E+000	-4.00984E-001	0.00000E+000	7	...........	0
	110	11.1	-3.89900E-001	-1.57791E-006	0.00000E+000	-3.89984E-001	0.00000E+000	7	...........	0
	121	12.2	-3.79089E-001	-1.37985E-006	0.00000E+000	-3.78984E-001	0.00000E+000	7	...........	0
	132	13.3	-3.68078E-001	-1.06343E-006	0.00000E+000	-3.67983E-001	0.00000E+000	7	...........	0
	143	14.4	-3.56967E-001	-9.40398E-007	0.00000E+000	-3.56983E-001	0.00000E+000	7	...........	0
	154	15.5	-3.46056E-001	-7.93357E-007	0.00000E+000	-3.45982E-001	0.00000E+000	7	...........	0
	165	16.6	-3.35045E-001	-8.03360E-007	0.00000E+000	-3.34982E-001	0.00000E+000	7	...........	0
	176	17.7	-3.24135E-001	-6.23311E-007	0.00000E+000	-3.23981E-001	0.00000E+000	7	...........	0
	187	18.8	-3.12923E-001	-5.25950E-007	0.00000E+000	-3.12981E-001	0.00000E+000	7	...........	0
	198	19.9	-3.02013E-001	-3.83245E-007	0.00000E+000	-3.01980E-001	0.00000E+000	7	...........	0
	209	21	-2.91002E-001	-3.70574E-007	0.00000E+000	-2.90980E-001	0.00000E+000	7	...........	0
	220	22.1	-2.79991E-001	-3.91580E-007	0.00000E+000	-2.79979E-001	0.00000E+000	7	...........	0
	231	23.2	-2.68980E-001	-2.71547E-007	0.00000E+000	-2.68979E-001	0.00000E+000	7	...........	0
	242	24.3	-2.58069E-001	-2.58544E-007	0.00000E+000	-2.57979E-001	0.00000E+000	7	...........	0
	253	25.4	-2.46958E-001	-2.33870E-007	0.00000E+000	-2.46978E-001	0.00000E+000	7	...........	0
	264	26.5	-2.35967E-001	-2.48207E-007	0.00000E+000	-2.35978E-001	0.00000E+000	7	...........	0
	275	27.6	-2.24936E-001	-3.42567E-007	0.00000E+000	-2.24977E-001	0.00000E+000	7	...........	0
	286	28.7	-2.13975E-001	-3.95581E-007	0.00000E+000	-2.13977E-001	0.00000E+000	7	...........	0
	297	29.8	-2.02884E-001	-2.83551E-007	0.00000E+000	-2.02976E-001	0.00000E+000	7	...........	0
	308	30.9	-1.91923E-001	-2.17866E-007	0.00000E+000	-1.91976E-001	0.00000E+000	7	...........	0
	319	32	-1.80882E-001	-1.24507E-007	0.00000E+000	-1.80975E-001	0.00000E+000	7	...........	0
	330	33.1	-1.69912E-001	-3.41487E-008	0.00000E+000	-1.69975E-001	0.00000E+000	7	...........	0
	341	34.2	-1.58941E-001	3.61627E-007	0.00000E+000	-1.59025E-001	0.00000E+000	7	...........	0
	352	35.3	-1.48050E-001	5.54680E-007	0.00000E+000	-1.48024E-001	0.00000E+000	7	...........	0
	363	36.4	-1.37019E-001	4.46984E-007	0.00000E+000	-1.37024E-001	0.00000E+000	7	...........	0
	374	37.5	-1.26008E-001	5.41009E-007	0.00000E+000	-1.26023E-001	0.00000E+000	7	...........	0
	385	38.6	-1.15037E-001	5.92690E-007	0.00000E+000	-1.15023E-001	0.00000E+000	7	...........	0
	396	39.7	-1.03976E-001	8.38091E-007	0.00000E+000	-1.04022E-001	0.00000E+000	7	...........	0
	407	40.8	-9.30350E-002	9.76462E-007	0.00000E+000	-9.30219E-002	0.00000E+000	7	...........	0
	418	41.9	-8.20541E-002	1.03915E-006	0.00000E+000	-8.20214E-002	0.00000E+000	7	...........	0
	429	43	-7.10231E-002	9.06110E-007	0.00000E+000	-7.10210E-002	0.00000E+000	7	...........	0
	440	44.1	-5.99821E-002	1.11450E-006	0.00000E+000	-6.00205E-002	0.00000E+000	7	...........	0
	451	45.2	-4.90112E-002	1.33656E-006	0.00000E+000	-4.90201E-002	0.00000E+000	7	...........	0
	462	46.3	-3.80403E-002	1.28288E-006	0.00000E+000	-3.80196E-002	0.00000E+000	7	...........	0
	473	47.4	-2.70593E-002	1.26487E-006	0.00000E+000	-2.70192E-002	0.00000E+000	7	...........	0
	484	48.5	-1.59750E-002	1.34756E-006	0.00000E+000	-1.60187E-002	0.00000E+000	7	...........	0
	495	49.6	-5.02515E-003	1.52561E-006	0.00000E+000	-5.01826E-003	0.00000E+000	7	...........	0
	506	50.7	5.96779E-003	1.54062E-006	0.00000E+000	5.98219E-003	0.00000E+000	7	...........	0
	517	51.8	1.69437E-002	1.43459E-006	0.00000E+000	1.69826E-002	0.00000E+000	7	...........	0
	528	52.9	2.79554E-002	1.40091E-006	0.00000E+000	2.79831E-002	0.00000E+000	7	...........	0
	539	54	3.89564E-002	1.28921E-006	0.00000E+000	3.89835E-002	0.00000E+000	7	...........	0
	550	55.1	4.99774E-002	1.28988E-006	0.00000E+000	4.99840E-002	0.00000E+000	7	...........	0
	561	56.2	6.09883E-002	1.37591E-006	0.00000E+000	6.09844E-002	0.00000E+000	7	...........	0
	572	57.3	7.19492E-002	1.25987E-006	0.00000E+000	7.19849E-002	0.00000E+000	7	...........	0
	583	58.4	8.29502E-002	1.30722E-006	0.00000E+000	8.29853E-002	0.00000E+000	7	...........	0
	594	59.5	9.39411E-002	1.29655E-006	0.00000E+000	9.39858E-002	0.00000E+000	7	...........	0
	605	60.6	1.04962E-001	1.37524E-006	0.00000E+000	1.04986E-001	0.00000E+000	7	...........	0
	616	61.7	1.15933E-001	1.42058E-006	0.00000E+000	1.15987E-001	0.00000E+000	7	...........	0
	627	62.8	1.26934E-001	1.57729E-006	0.00000E+000	1.26987E-001	0.00000E+000	7	...........	0
[...]
	671	67.2	1.70948E-001	2.08443E-006	0.00000E+000	1.70989E-001	0.00000E+000	7	...........	0
	682	68.3	1.81959E-001	1.92139E-006	0.00000E+000	1.81989E-001	0.00000E+000	7	...........	0
	693	69.4	1.92980E-001	1.99374E-006	0.00000E+000	1.92990E-001	0.00000E+000	7	...........	0
	704	70.5	2.03951E-001	2.03275E-006	0.00000E+000	2.03990E-001	0.00000E+000	7	...........	0
	715	71.6	2.14952E-001	1.95473E-006	0.00000E+000	2.14991E-001	0.00000E+000	7	...........	0
	726	72.7	2.25933E-001	2.02942E-006	0.00000E+000	2.25991E-001	0.00000E+000	7	...........	0
	737	73.8	2.36933E-001	2.18346E-006	0.00000E+000	2.36992E-001	0.00000E+000	7	...........	0
	748	74.9	2.47924E-001	2.16779E-006	0.00000E+000	2.47992E-001	0.00000E+000	7	...........	0
	759	76	2.58945E-001	2.07910E-006	0.00000E+000	2.58993E-001	0.00000E+000	7	...........	0
	770	77.1	2.70057E-001	1.97307E-006	0.00000E+000	2.69993E-001	0.00000E+000	7	...........	0
	781	78.2	2.81068E-001	2.06043E-006	0.00000E+000	2.80993E-001	0.00000E+000	7	...........	0
	792	79.3	2.92079E-001	2.09977E-006	0.00000E+000	2.91994E-001	0.00000E+000	7	...........	0
	803	80.4	3.03090E-001	2.15612E-006	0.00000E+000	3.02994E-001	0.00000E+000	7	...........	0
	814	81.5	3.14001E-001	2.33917E-006	0.00000E+000	3.13995E-001	0.00000E+000	7	...........	0
	825	82.6	3.25112E-001	2.43553E-006	0.00000E+000	3.24995E-001	0.00000E+000	7	...........	0
	836	83.7	3.36023E-001	2.25748E-006	0.00000E+000	3.35996E-001	0.00000E+000	7	...........	0
	847	84.8	3.47134E-001	2.07776E-006	0.00000E+000	3.46996E-001	0.00000E+000	7	...........	0
	858	85.9	3.58044E-001	2.06443E-006	0.00000E+000	3.57997E-001	0.00000E+000	7	...........	0
	869	87	3.69055E-001	2.30016E-006	0.00000E+000	3.68997E-001	0.00000E+000	7	...........	0
	880	88.1	3.80066E-001	2.37985E-006	0.00000E+000	3.79997E-001	0.00000E+000	7	...........	0
	891	89.2	3.91077E-001	2.45053E-006	0.00000E+000	3.90998E-001	0.00000E+000	7	...........	0
	902	90.3	4.02188E-001	2.52489E-006	0.00000E+000	4.01998E-001	0.00000E+000	7	...........	0
	913	91.4	4.13099E-001	2.57123E-006	0.00000E+000	4.12999E-001	0.00000E+000	7	...........	0
	924	92.5	4.24110E-001	2.61291E-006	0.00000E+000	4.23999E-001	0.00000E+000	7	...........	0
	935	93.6	4.35121E-001	2.63458E-006	0.00000E+000	4.35000E-001	0.00000E+000	7	...........	0
	946	94.7	4.46232E-001	2.62725E-006	0.00000E+000	4.46000E-001	0.00000E+000	7	...........	0
	957	95.8	4.57143E-001	2.76362E-006	0.00000E+000	4.57001E-001	0.00000E+000	7	...........	0
	968	96.9	4.68054E-001	2.93767E-006	0.00000E+000	4.68001E-001	0.00000E+000	7	...........	0
	979	98	4.79065E-001	3.06670E-006	0.00000E+000	4.79002E-001	0.00000E+000	7	...........	0
	990	99.1	4.90076E-001	3.23908E-006	0.00000E+000	4.90002E-001	0.00000E+000	7	...........	0
	1001	100.2	5.01087E-001	3.30377E-006	0.00000E+000	5.01002E-001	0.00000E+000	7	...........	0
	1012	101.3	5.11998E-001	3.42447E-006	0.00000E+000	5.12003E-001	0.00000E+000	7	...........	0
	1023	102.4	5.23209E-001	3.44547E-006	0.00000E+000	5.23003E-001	0.00000E+000	7	...........	0
	1034	103.5	5.34120E-001	3.48315E-006	0.00000E+000	5.34004E-001	0.00000E+000	7	...........	0
	1045	104.6	5.45031E-001	3.59618E-006	0.00000E+000	5.45004E-001	0.00000E+000	7	...........	0
	1056	105.7	5.56142E-001	3.74489E-006	0.00000E+000	5.56005E-001	0.00000E+000	7	...........	0
	1067	106.8	5.67153E-001	4.04597E-006	0.00000E+000	5.67005E-001	0.00000E+000	7	...........	0
	1078	107.9	5.78164E-001	4.32105E-006	0.00000E+000	5.78006E-001	0.00000E+000	7	...........	0
	1089	109	5.89074E-001	4.62713E-006	0.00000E+000	5.89006E-001	0.00000E+000	7	...........	0
	1100	110.1	6.00186E-001	4.91021E-006	0.00000E+000	6.00006E-001	0.00000E+000	7	...........	0

File: ZFO_h200_light2.DTA
EXPLAIN
TAG	LSV
TITLE	LABEL	Linear Sweep Voltammetry	Test &Identifier
DATE	LABEL	7/5/2024	Date
TIME	LABEL	16:27:12	Time
NOTES	NOTES	1	&Notes...

PSTAT	PSTAT	L3FNano	Potentiostat
VINIT	POTEN	-5.00000E-001	F	&Initial E (V)
VFINAL	POTEN	6.00000E-001	F	&Final E (V)
SCANRATE	QUANT	9.99998E+000	&Scan Rate (mV/s)
STEPSIZE	QUANT	1.00000E+000	St&ep Size (mV)
IMODE	SELECTOR	0	I/E Range &Mode
IRANGE	QUANT	1.00000E+001	&Max Current (mA)
AREA	QUANT	1.00000E+000	Electrode &Area (cm^2)
ELECTRODETYPE	SELECTOR	0	Electrode Type
STRIPPING	TOGGLE	F	Used for Stripping
POLARITY	TOGGLE	F	Signal Polarity
CONDIT	TWOPARAM	F	1.50000E+001	0.00000E+000	Conditionin&g	Time(s)	E(V)
DELAY	TWOPARAM	F	3.00000E+001	0.00000E+000	Init. De&lay	Time(s)	Stab.(mV/s)
EQDELAY	QUANT	5.00000E+000	Equil. &Time (s)
IRCOMP	SELECTOR	0	IRCom&p
PFCOR	QUANT	5.00000E+001	PF Corr. (ohm)
SAMPLINGMODE	SELECTOR	0	Sampling &Mode
EOC	QUANT	0	Open Circuit (V)
PSTATMODEL	IQUANT	48	Pstat Model
PSTATSECTION	LABEL	IFC1000-07082	Pstat Section
PSTATSERIALNO	LABEL	07082	Pstat Serial Number
CTRLMODE	IQUANT	1	Control Mode
IESTAB	IQUANT	2	I/E Stability
CASPEED	IQUANT	2	Control Amp Speed
CONVENTION	IQUANT	1	Current Convention
ICHRANGE	IQUANT	2	Ich Range
ICHRANGEMODE	TOGGLE	F	Ich Auto Range
ICHOFFSETENABLE	TOGGLE	F	Ich Offset Enable
ICHOFFSET	QUANT	0	Ich Offset (V)
ICHFILTER	IQUANT	3	Ich Filter
VCHRANGE	IQUANT	2	Vch Range
VCHRANGEMODE	TOGGLE	T	Vch Auto Range
VCHOFFSETENABLE	TOGGLE	F	Vch Offset Enable
VCHOFFSET	QUANT	0	Vch Offset (V)
VCHFILTER	IQUANT	3	Vch Filter
IERANGELOWERLIMIT	IQUANT	4	I/E Range Lower Limit
IERANGEMODE	TOGGLE	T	I/E AutoRange
IERANGE	IQUANT	11	I/E Range
ACHSELECT	IQUANT	4	Ach Select
CABLEID	IQUANT	14	Cable ID
DCCALDATE	LABEL	7/3/2024	DC Calibration Date
ACCALDATE	LABEL	7/3/2024	AC Calibration Date
FRAMEWORKVERSION	QUANT	6.24	Framework Version
INSTRUMENTVERSION	LABEL	3.28	Instrument Version
CURVE	TABLE	1101
	Pt	T	Vf	Im	Vu	Sig	Ach	IERange	Over	Cycle
	#	s	V vs. Ref.	A	V	V	V	#	bits	#
	0	0.1	-4.99909E-001	-2.24315E-004	0.00000E+000	-4.99988E-001	0.00000E+000	11	...........	0
	11	1.2	-4.88999E-001	-1.74975E-004	0.00000E+000	-4.88988E-001	0.00000E+000	9	...........	0
	22	2.3	-4.77888E-001	-1.38285E-004	0.00000E+000	-4.77988E-001	0.00000E+000	9	...........	0
	33	3.4	-4.66977E-001	-1.10617E-004	0.00000E+000	-4.66987E-001	0.00000E+000	9	...........	0
	44	4.5	-4.55966E-001	-8.91760E-005	0.00000E+000	-4.55987E-001	0.00000E+000	9	...........	0
	55	5.6	-4.45055E-001	-7.17997E-005	0.00000E+000	-4.44986E-001	0.00000E+000	8	...........	0
	66	6.7	-4.33944E-001	-5.73221E-005	0.00000E+000	-4.33986E-001	0.00000E+000	8	...........	0
	77	7.8	-4.22933E-001	-4.54646E-005	0.00000E+000	-4.22985E-001	0.00000E+000	8	...........	0
	88	8.9	-4.11922E-001	-3.58839E-005	0.00000E+000	-4.11985E-001	0.00000E+000	8	...........	0
	99	10	-4.00911E-001	-2.75967E-005	0.00000E+000	-4.00984E-001	0.00000E+000	8	...........	0
	110	11.1	-3.89900E-001	-1.99428E-005	0.00000E+000	-3.89984E-001	0.00000E+000	8	...........	0
	121	12.2	-3.78889E-001	-1.40424E-005	0.00000E+000	-3.78984E-001	0.00000E+000	8	...........	0
	132	13.3	-3.67978E-001	-9.53206E-006	0.00000E+000	-3.67983E-001	0.00000E+000	8	...........	0
	143	14.4	-3.56867E-001	-4.46403E-006	0.00000E+000	-3.56983E-001	0.00000E+000	7	...........	0
	154	15.5	-3.45956E-001	-1.48988E-006	0.00000E+000	-3.45982E-001	0.00000E+000	7	...........	0
	165	16.6	-3.35045E-001	2.23748E-006	0.00000E+000	-3.34982E-001	0.00000E+000	7	...........	0
	176	17.7	-3.23934E-001	5.75744E-006	0.00000E+000	-3.23981E-001	0.00000E+000	7	...........	0
	187	18.8	-3.13023E-001	7.81567E-006	0.00000E+000	-3.12981E-001	0.00000E+000	7	...........	0
	198	19.9	-3.02013E-001	1.11227E-005	0.00000E+000	-3.01980E-001	0.00000E+000	8	...........	0
	209	21	-2.90901E-001	1.23595E-005	0.00000E+000	-2.90980E-001	0.00000E+000	8	...........	0
	220	22.1	-2.79890E-001	1.60864E-005	0.00000E+000	-2.79979E-001	0.00000E+000	8	...........	0
	231	23.2	-2.68980E-001	1.89533E-005	0.00000E+000	-2.68979E-001	0.00000E+000	8	...........	0
	242	24.3	-2.57969E-001	2.10767E-005	0.00000E+000	-2.57979E-001	0.00000E+000	8	...........	0
	253	25.4	-2.46858E-001	2.50470E-005	0.00000E+000	-2.46978E-001	0.00000E+000	8	...........	0
	264	26.5	-2.35887E-001	2.88006E-005	0.00000E+000	-2.35978E-001	0.00000E+000	8	...........	0
	275	27.6	-2.24906E-001	3.19008E-005	0.00000E+000	-2.24977E-001	0.00000E+000	8	...........	0
	286	28.7	-2.13905E-001	3.40877E-005	0.00000E+000	-2.13977E-001	0.00000E+000	8	...........	0
	297	29.8	-2.02904E-001	3.52711E-005	0.00000E+000	-2.02976E-001	0.00000E+000	8	...........	0
	308	30.9	-1.91893E-001	3.64712E-005	0.00000E+000	-1.91976E-001	0.00000E+000	8	...........	0
	319	32	-1.80902E-001	3.76979E-005	0.00000E+000	-1.80975E-001	0.00000E+000	8	...........	0
	330	33.1	-1.69891E-001	3.77779E-005	0.00000E+000	-1.69975E-001	0.00000E+000	8	...........	0
	341	34.2	-1.58961E-001	3.66612E-005	0.00000E+000	-1.59025E-001	0.00000E+000	8	...........	0
	352	35.3	-1.47980E-001	3.68979E-005	0.00000E+000	-1.48024E-001	0.00000E+000	8	...........	0
	363	36.4	-1.36969E-001	3.88880E-005	0.00000E+000	-1.37024E-001	0.00000E+000	8	...........	0
	374	37.5	-1.25998E-001	3.78379E-005	0.00000E+000	-1.26023E-001	0.00000E+000	8	...........	0
	385	38.6	-1.14997E-001	3.83313E-005	0.00000E+000	-1.15023E-001	0.00000E+000	8	...........	0
	396	39.7	-1.03986E-001	3.93114E-005	0.00000E+000	-1.04022E-001	0.00000E+000	8	...........	0
	407	40.8	-9.29649E-002	3.82546E-005	0.00000E+000	-9.30219E-002	0.00000E+000	8	...........	0
	418	41.9	-8.20040E-002	3.96014E-005	0.00000E+000	-8.20214E-002	0.00000E+000	8	...........	0
	429	43	-7.09930E-002	4.09581E-005	0.00000E+000	-7.10210E-002	0.00000E+000	8	...........	0
	440	44.1	-5.99921E-002	4.09281E-005	0.00000E+000	-6.00205E-002	0.00000E+000	8	...........	0
	451	45.2	-4.89811E-002	4.00781E-005	0.00000E+000	-4.90201E-002	0.00000E+000	8	...........	0
	462	46.3	-3.79602E-002	4.25716E-005	0.00000E+000	-3.80196E-002	0.00000E+000	8	...........	0
	473	47.4	-2.69993E-002	4.10848E-005	0.00000E+000	-2.70192E-002	0.00000E+000	8	...........	0
	484	48.5	-1.59710E-002	4.43850E-005	0.00000E+000	-1.60187E-002	0.00000E+000	8	...........	0
	495	49.6	-4.98611E-003	4.46551E-005	0.00000E+000	-5.01826E-003	0.00000E+000	8	...........	0
	506	50.7	5.99582E-003	4.44750E-005	0.00000E+000	5.98219E-003	0.00000E+000	8	...........	0
	517	51.8	1.70088E-002	4.85887E-005	0.00000E+000	1.69826E-002	0.00000E+000	8	...........	0
	528	52.9	2.80255E-002	4.77853E-005	0.00000E+000	2.79831E-002	0.00000E+000	8	...........	0
	539	54	3.90064E-002	5.24623E-005	0.00000E+000	3.89835E-002	0.00000E+000	8	...........	0
	550	55.1	5.00274E-002	5.25423E-005	0.00000E+000	4.99840E-002	0.00000E+000	8	...........	0
	561	56.2	6.10083E-002	5.84560E-005	0.00000E+000	6.09844E-002	0.00000E+000	8	...........	0
	572	57.3	7.20093E-002	5.90661E-005	0.00000E+000	7.19849E-002	0.00000E+000	8	...........	0
	583	58.4	8.30203E-002	6.53298E-005	0.00000E+000	8.29853E-002	0.00000E+000	8	...........	0
	594	59.5	9.40212E-002	6.72500E-005	0.00000E+000	9.39858E-002	0.00000E+000	8	...........	0
	605	60.6	1.05002E-001	7.24937E-005	0.00000E+000	1.04986E-001	0.00000E+000	8	...........	0
	616	61.7	1.15993E-001	7.69673E-005	0.00000E+000	1.15987E-001	0.00000E+000	8	...........	0
	627	62.8	1.26994E-001	8.02042E-005	0.00000E+000	1.26987E-001	0.00000E+000	8	...........	0
[...]
	671	67.2	1.70998E-001	1.01034E-004	0.00000E+000	1.70989E-001	0.00000E+000	9	...........	0
	682	68.3	1.82019E-001	1.07493E-004	0.00000E+000	1.81989E-001	0.00000E+000	9	...........	0
	693	69.4	1.93010E-001	1.09091E-004	0.00000E+000	1.92990E-001	0.00000E+000	9	...........	0
	704	70.5	2.04001E-001	1.17115E-004	0.00000E+000	2.03990E-001	0.00000E+000	9	...........	0
	715	71.6	2.14982E-001	1.19513E-004	0.00000E+000	2.14991E-001	0.00000E+000	9	...........	0
	726	72.7	2.25993E-001	1.23375E-004	0.00000E+000	2.25991E-001	0.00000E+000	9	...........	0
	737	73.8	2.37004E-001	1.30100E-004	0.00000E+000	2.36992E-001	0.00000E+000	9	...........	0
	748	74.9	2.47984E-001	1.36493E-004	0.00000E+000	2.47992E-001	0.00000E+000	9	...........	0
	759	76	2.58965E-001	1.37658E-004	0.00000E+000	2.58993E-001	0.00000E+000	9	...........	0
	770	77.1	2.70157E-001	1.46148E-004	0.00000E+000	2.69993E-001	0.00000E+000	9	...........	0
	781	78.2	2.81068E-001	1.47180E-004	0.00000E+000	2.80993E-001	0.00000E+000	9	...........	0
	792	79.3	2.92279E-001	1.51175E-004	0.00000E+000	2.91994E-001	0.00000E+000	9	...........	0
	803	80.4	3.03090E-001	1.56169E-004	0.00000E+000	3.02994E-001	0.00000E+000	9	...........	0
	814	81.5	3.14201E-001	1.61863E-004	0.00000E+000	3.13995E-001	0.00000E+000	9	...........	0
	825	82.6	3.25212E-001	1.71252E-004	0.00000E+000	3.24995E-001	0.00000E+000	9	...........	0
	836	83.7	3.36223E-001	1.72351E-004	0.00000E+000	3.35996E-001	0.00000E+000	9	...........	0
	847	84.8	3.47134E-001	1.76645E-004	0.00000E+000	3.46996E-001	0.00000E+000	9	...........	0
	858	85.9	3.58145E-001	1.88298E-004	0.00000E+000	3.57997E-001	0.00000E+000	9	...........	0
	869	87	3.69156E-001	1.93925E-004	0.00000E+000	3.68997E-001	0.00000E+000	9	...........	0
	880	88.1	3.80167E-001	2.03880E-004	0.00000E+000	3.79997E-001	0.00000E+000	9	...........	0
	891	89.2	3.91077E-001	2.17697E-004	0.00000E+000	3.90998E-001	0.00000E+000	9	...........	0
	902	90.3	4.02188E-001	2.28984E-004	0.00000E+000	4.01998E-001	0.00000E+000	9	...........	0
	913	91.4	4.13199E-001	2.54854E-004	0.00000E+000	4.12999E-001	0.00000E+000	9	...........	0
	924	92.5	4.24210E-001	2.89480E-004	0.00000E+000	4.23999E-001	0.00000E+000	9	...........	0
	935	93.6	4.35221E-001	3.19078E-004	0.00000E+000	4.35000E-001	0.00000E+000	9	...........	0
	946	94.7	4.46232E-001	3.60297E-004	0.00000E+000	4.46000E-001	0.00000E+000	9	...........	0
	957	95.8	4.57143E-001	4.10138E-004	0.00000E+000	4.57001E-001	0.00000E+000	9	...........	0
	968	96.9	4.68254E-001	4.58781E-004	0.00000E+000	4.68001E-001	0.00000E+000	9	...........	0
	979	98	4.79165E-001	5.20475E-004	0.00000E+000	4.79002E-001	0.00000E+000	9	...........	0
	990	99.1	4.90176E-001	5.84367E-004	0.00000E+000	4.90002E-001	0.00000E+000	9	...........	0
	1001	100.2	5.01287E-001	6.41034E-004	0.00000E+000	5.01002E-001	0.00000E+000	9	...........	0
	1012	101.3	5.12198E-001	7.03860E-004	0.00000E+000	5.12003E-001	0.00000E+000	9	...........	0
	1023	102.4	5.23109E-001	7.64323E-004	0.00000E+000	5.23003E-001	0.00000E+000	9	...........	0
	1034	103.5	5.34220E-001	8.14797E-004	0.00000E+000	5.34004E-001	0.00000E+000	9	...........	0
	1045	104.6	5.45131E-001	8.83816E-004	0.00000E+000	5.45004E-001	0.00000E+000	9	...........	0
	1056	105.7	5.56242E-001	9.70541E-004	0.00000E+000	5.56005E-001	0.00000E+000	10	...........	0
	1067	106.8	5.67353E-001	1.06645E-003	0.00000E+000	5.67005E-001	0.00000E+000	10	...........	0
	1078	107.9	5.78264E-001	1.18193E-003	0.00000E+000	5.78006E-001	0.00000E+000	10	...........	0
	1089	109	5.89275E-001	1.30173E-003	0.00000E+000	5.89006E-001	0.00000E+000	10	...........	0
	1100	110.1	6.00186E-001	1.42187E-003	0.00000E+000	6.00006E-001	0.00000E+000	10	...........	0