Folder: DataAnalysis/LSV ZFO (part 13)

File: ZFO_h400_light3.DTA
EXPLAIN
TAG	LSV
TITLE	LABEL	Linear Sweep Voltammetry	Test &Identifier
DATE	LABEL	7/5/2024	Date
TIME	LABEL	17:11:30	Time
NOTES	NOTES	1	&Notes...

PSTAT	PSTAT	L3FNano	Potentiostat
VINIT	POTEN	-5.00000E-001	F	&Initial E (V)
VFINAL	POTEN	6.00000E-001	F	&Final E (V)
SCANRATE	QUANT	9.99998E+000	&Scan Rate (mV/s)
STEPSIZE	QUANT	1.00000E+000	St&ep Size (mV)
IMODE	SELECTOR	0	I/E Range &Mode
IRANGE	QUANT	1.00000E+001	&Max Current (mA)
AREA	QUANT	1.00000E+000	Electrode &Area (cm^2)
ELECTRODETYPE	SELECTOR	0	Electrode Type
STRIPPING	TOGGLE	F	Used for Stripping
POLARITY	TOGGLE	F	Signal Polarity
CONDIT	TWOPARAM	F	1.50000E+001	0.00000E+000	Conditionin&g	Time(s)	E(V)
DELAY	TWOPARAM	F	3.00000E+001	0.00000E+000	Init. De&lay	Time(s)	Stab.(mV/s)
EQDELAY	QUANT	5.00000E+000	Equil. &Time (s)
IRCOMP	SELECTOR	0	IRCom&p
PFCOR	QUANT	5.00000E+001	PF Corr. (ohm)
SAMPLINGMODE	SELECTOR	0	Sampling &Mode
EOC	QUANT	0	Open Circuit (V)
PSTATMODEL	IQUANT	48	Pstat Model
PSTATSECTION	LABEL	IFC1000-07082	Pstat Section
PSTATSERIALNO	LABEL	07082	Pstat Serial Number
CTRLMODE	IQUANT	1	Control Mode
IESTAB	IQUANT	2	I/E Stability
CASPEED	IQUANT	2	Control Amp Speed
CONVENTION	IQUANT	1	Current Convention
ICHRANGE	IQUANT	2	Ich Range
ICHRANGEMODE	TOGGLE	F	Ich Auto Range
ICHOFFSETENABLE	TOGGLE	F	Ich Offset Enable
ICHOFFSET	QUANT	0	Ich Offset (V)
ICHFILTER	IQUANT	3	Ich Filter
VCHRANGE	IQUANT	2	Vch Range
VCHRANGEMODE	TOGGLE	T	Vch Auto Range
VCHOFFSETENABLE	TOGGLE	F	Vch Offset Enable
VCHOFFSET	QUANT	0	Vch Offset (V)
VCHFILTER	IQUANT	3	Vch Filter
IERANGELOWERLIMIT	IQUANT	4	I/E Range Lower Limit
IERANGEMODE	TOGGLE	T	I/E AutoRange
IERANGE	IQUANT	11	I/E Range
ACHSELECT	IQUANT	4	Ach Select
CABLEID	IQUANT	14	Cable ID
DCCALDATE	LABEL	7/3/2024	DC Calibration Date
ACCALDATE	LABEL	7/3/2024	AC Calibration Date
FRAMEWORKVERSION	QUANT	6.24	Framework Version
INSTRUMENTVERSION	LABEL	3.28	Instrument Version
CURVE	TABLE	1101
	Pt	T	Vf	Im	Vu	Sig	Ach	IERange	Over	Cycle
	#	s	V vs. Ref.	A	V	V	V	#	bits	#
	0	0.1	-5.00110E-001	-4.71743E-006	0.00000E+000	-4.99988E-001	0.00000E+000	11	...........	0
	11	1.2	-4.89099E-001	-8.27864E-006	0.00000E+000	-4.88988E-001	0.00000E+000	8	...........	0
	22	2.3	-4.78188E-001	-6.95305E-006	0.00000E+000	-4.77988E-001	0.00000E+000	7	...........	0
	33	3.4	-4.67077E-001	-5.79673E-006	0.00000E+000	-4.66987E-001	0.00000E+000	7	...........	0
	44	4.5	-4.56066E-001	-5.00785E-006	0.00000E+000	-4.55987E-001	0.00000E+000	7	...........	0
	55	5.6	-4.45155E-001	-4.20096E-006	0.00000E+000	-4.44986E-001	0.00000E+000	7	...........	0
	66	6.7	-4.34144E-001	-3.54111E-006	0.00000E+000	-4.33986E-001	0.00000E+000	7	...........	0
	77	7.8	-4.23133E-001	-2.80724E-006	0.00000E+000	-4.22985E-001	0.00000E+000	7	...........	0
	88	8.9	-4.12222E-001	-2.32778E-006	0.00000E+000	-4.11985E-001	0.00000E+000	7	...........	0
	99	10	-4.01211E-001	-2.11205E-006	0.00000E+000	-4.00984E-001	0.00000E+000	7	...........	0
	110	11.1	-3.90100E-001	-1.74795E-006	0.00000E+000	-3.89984E-001	0.00000E+000	7	...........	0
	121	12.2	-3.79089E-001	-1.30450E-006	0.00000E+000	-3.78984E-001	0.00000E+000	7	...........	0
	132	13.3	-3.68078E-001	-1.05776E-006	0.00000E+000	-3.67983E-001	0.00000E+000	7	...........	0
	143	14.4	-3.57067E-001	-6.84661E-007	0.00000E+000	-3.56983E-001	0.00000E+000	7	...........	0
	154	15.5	-3.46056E-001	-8.92718E-007	0.00000E+000	-3.45982E-001	0.00000E+000	7	...........	0
	165	16.6	-3.35145E-001	-5.77631E-007	0.00000E+000	-3.34982E-001	0.00000E+000	7	...........	0
	176	17.7	-3.24135E-001	-4.33592E-007	0.00000E+000	-3.23981E-001	0.00000E+000	7	...........	0
	187	18.8	-3.13124E-001	-8.91638E-008	0.00000E+000	-3.12981E-001	0.00000E+000	7	...........	0
	198	19.9	-3.02013E-001	4.05385E-008	0.00000E+000	-3.01980E-001	0.00000E+000	7	...........	0
	209	21	-2.91102E-001	-2.05862E-007	0.00000E+000	-2.90980E-001	0.00000E+000	7	...........	0
	220	22.1	-2.80091E-001	1.08891E-007	0.00000E+000	-2.79979E-001	0.00000E+000	7	...........	0
	231	23.2	-2.69080E-001	3.15361E-008	0.00000E+000	-2.68979E-001	0.00000E+000	7	...........	0
	242	24.3	-2.58069E-001	5.78766E-008	0.00000E+000	-2.57979E-001	0.00000E+000	7	...........	0
	253	25.4	-2.46958E-001	5.76686E-007	0.00000E+000	-2.46978E-001	0.00000E+000	7	...........	0
	264	26.5	-2.36117E-001	8.89438E-007	0.00000E+000	-2.35978E-001	0.00000E+000	7	...........	0
	275	27.6	-2.25116E-001	5.07667E-007	0.00000E+000	-2.24977E-001	0.00000E+000	7	...........	0
	286	28.7	-2.14055E-001	1.14784E-006	0.00000E+000	-2.13977E-001	0.00000E+000	7	...........	0
	297	29.8	-2.03145E-001	5.42676E-007	0.00000E+000	-2.02976E-001	0.00000E+000	7	...........	0
	308	30.9	-1.92034E-001	1.54362E-006	0.00000E+000	-1.91976E-001	0.00000E+000	7	...........	0
	319	32	-1.81093E-001	1.35423E-006	0.00000E+000	-1.80975E-001	0.00000E+000	7	...........	0
	330	33.1	-1.70082E-001	5.02332E-007	0.00000E+000	-1.69975E-001	0.00000E+000	7	...........	0
	341	34.2	-1.59121E-001	1.49627E-006	0.00000E+000	-1.59025E-001	0.00000E+000	7	...........	0
	352	35.3	-1.48170E-001	1.24854E-006	0.00000E+000	-1.48024E-001	0.00000E+000	7	...........	0
	363	36.4	-1.37169E-001	7.81742E-007	0.00000E+000	-1.37024E-001	0.00000E+000	7	...........	0
	374	37.5	-1.26188E-001	8.46760E-007	0.00000E+000	-1.26023E-001	0.00000E+000	7	...........	0
	385	38.6	-1.15157E-001	2.36784E-006	0.00000E+000	-1.15023E-001	0.00000E+000	7	...........	0
	396	39.7	-1.04166E-001	1.64765E-006	0.00000E+000	-1.04022E-001	0.00000E+000	7	...........	0
	407	40.8	-9.31451E-002	1.23320E-006	0.00000E+000	-9.30219E-002	0.00000E+000	7	...........	0
	418	41.9	-8.21642E-002	1.53428E-006	0.00000E+000	-8.20214E-002	0.00000E+000	7	...........	0
	429	43	-7.11532E-002	2.87999E-006	0.00000E+000	-7.10210E-002	0.00000E+000	7	...........	0
	440	44.1	-6.01322E-002	1.09416E-006	0.00000E+000	-6.00205E-002	0.00000E+000	7	...........	0
	451	45.2	-4.91713E-002	1.87838E-006	0.00000E+000	-4.90201E-002	0.00000E+000	7	...........	0
	462	46.3	-3.81103E-002	3.38479E-006	0.00000E+000	-3.80196E-002	0.00000E+000	7	...........	0
	473	47.4	-2.71194E-002	1.96040E-006	0.00000E+000	-2.70192E-002	0.00000E+000	7	...........	0
	484	48.5	-1.61702E-002	2.63125E-006	0.00000E+000	-1.60187E-002	0.00000E+000	7	...........	0
	495	49.6	-5.08621E-003	1.73600E-006	0.00000E+000	-5.01826E-003	0.00000E+000	7	...........	0
	506	50.7	5.84067E-003	2.62291E-006	0.00000E+000	5.98219E-003	0.00000E+000	7	...........	0
	517	51.8	1.68306E-002	4.04864E-006	0.00000E+000	1.69826E-002	0.00000E+000	7	...........	0
	528	52.9	2.79054E-002	2.44953E-006	0.00000E+000	2.79831E-002	0.00000E+000	7	...........	0
	539	54	3.88363E-002	4.28704E-006	0.00000E+000	3.89835E-002	0.00000E+000	7	...........	0
	550	55.1	4.98873E-002	3.44081E-006	0.00000E+000	4.99840E-002	0.00000E+000	7	...........	0
	561	56.2	6.08282E-002	1.74601E-006	0.00000E+000	6.09844E-002	0.00000E+000	7	...........	0
	572	57.3	7.18391E-002	4.65914E-006	0.00000E+000	7.19849E-002	0.00000E+000	7	...........	0
	583	58.4	8.28601E-002	5.50171E-006	0.00000E+000	8.29853E-002	0.00000E+000	7	...........	0
	594	59.5	9.38610E-002	5.45236E-006	0.00000E+000	9.39858E-002	0.00000E+000	7	...........	0
	605	60.6	1.04862E-001	5.53471E-006	0.00000E+000	1.04986E-001	0.00000E+000	7	...........	0
	616	61.7	1.15893E-001	5.09393E-006	0.00000E+000	1.15987E-001	0.00000E+000	7	...........	0
	627	62.8	1.26864E-001	2.70794E-006	0.00000E+000	1.26987E-001	0.00000E+000	7	...........	0
[...]
	671	67.2	1.70838E-001	5.76111E-006	0.00000E+000	1.70989E-001	0.00000E+000	7	...........	0
	682	68.3	1.81769E-001	5.57739E-006	0.00000E+000	1.81989E-001	0.00000E+000	7	...........	0
	693	69.4	1.92870E-001	4.78918E-006	0.00000E+000	1.92990E-001	0.00000E+000	7	...........	0
	704	70.5	2.03841E-001	4.74683E-006	0.00000E+000	2.03990E-001	0.00000E+000	7	...........	0
	715	71.6	2.14831E-001	9.03368E-006	0.00000E+000	2.14991E-001	0.00000E+000	7	...........	0
	726	72.7	2.25882E-001	9.03501E-006	0.00000E+000	2.25991E-001	0.00000E+000	7	...........	0
	737	73.8	2.36923E-001	5.12727E-006	0.00000E+000	2.36992E-001	0.00000E+000	7	...........	0
	748	74.9	2.47834E-001	2.80880E-006	0.00000E+000	2.47992E-001	0.00000E+000	8	...........	0
	759	76	2.58795E-001	4.19890E-006	0.00000E+000	2.58993E-001	0.00000E+000	8	...........	0
	770	77.1	2.70157E-001	9.30259E-006	0.00000E+000	2.69993E-001	0.00000E+000	8	...........	0
	781	78.2	2.80968E-001	1.09265E-005	0.00000E+000	2.80993E-001	0.00000E+000	7	....ih..i..	0
	792	79.3	2.92079E-001	5.95569E-006	0.00000E+000	2.91994E-001	0.00000E+000	8	...........	0
	803	80.4	3.03090E-001	1.09265E-005	0.00000E+000	3.02994E-001	0.00000E+000	7	....ih..i..	0
	814	81.5	3.14101E-001	7.84249E-006	0.00000E+000	3.13995E-001	0.00000E+000	8	...........	0
	825	82.6	3.25112E-001	1.09265E-005	0.00000E+000	3.24995E-001	0.00000E+000	7	....ih..i..	0
	836	83.7	3.36023E-001	1.44996E-005	0.00000E+000	3.35996E-001	0.00000E+000	8	...........	0
	847	84.8	3.47134E-001	1.33495E-005	0.00000E+000	3.46996E-001	0.00000E+000	8	...........	0
	858	85.9	3.58145E-001	1.19061E-005	0.00000E+000	3.57997E-001	0.00000E+000	8	...........	0
	869	87	3.69156E-001	1.80032E-005	0.00000E+000	3.68997E-001	0.00000E+000	8	...........	0
	880	88.1	3.80066E-001	2.15968E-005	0.00000E+000	3.79997E-001	0.00000E+000	8	...........	0
	891	89.2	3.91077E-001	1.78399E-005	0.00000E+000	3.90998E-001	0.00000E+000	8	...........	0
	902	90.3	4.02088E-001	2.44603E-005	0.00000E+000	4.01998E-001	0.00000E+000	8	...........	0
	913	91.4	4.13099E-001	3.27609E-005	0.00000E+000	4.12999E-001	0.00000E+000	8	...........	0
	924	92.5	4.24210E-001	3.64645E-005	0.00000E+000	4.23999E-001	0.00000E+000	8	...........	0
	935	93.6	4.35121E-001	3.26276E-005	0.00000E+000	4.35000E-001	0.00000E+000	8	...........	0
	946	94.7	4.46032E-001	3.49110E-005	0.00000E+000	4.46000E-001	0.00000E+000	8	...........	0
	957	95.8	4.57143E-001	4.71686E-005	0.00000E+000	4.57001E-001	0.00000E+000	8	...........	0
	968	96.9	4.68054E-001	5.29023E-005	0.00000E+000	4.68001E-001	0.00000E+000	8	...........	0
	979	98	4.79065E-001	4.95021E-005	0.00000E+000	4.79002E-001	0.00000E+000	8	...........	0
	990	99.1	4.90176E-001	5.42491E-005	0.00000E+000	4.90002E-001	0.00000E+000	8	...........	0
	1001	100.2	5.01187E-001	6.48898E-005	0.00000E+000	5.01002E-001	0.00000E+000	8	...........	0
	1012	101.3	5.12198E-001	7.31904E-005	0.00000E+000	5.12003E-001	0.00000E+000	8	...........	0
	1023	102.4	5.23109E-001	7.10236E-005	0.00000E+000	5.23003E-001	0.00000E+000	8	...........	0
	1034	103.5	5.34120E-001	8.76847E-005	0.00000E+000	5.34004E-001	0.00000E+000	8	...........	0
	1045	104.6	5.45131E-001	8.45535E-005	0.00000E+000	5.45004E-001	0.00000E+000	9	...........	0
	1056	105.7	5.56142E-001	9.68058E-005	0.00000E+000	5.56005E-001	0.00000E+000	9	...........	0
	1067	106.8	5.67153E-001	1.11422E-004	0.00000E+000	5.67005E-001	0.00000E+000	9	...........	0
	1078	107.9	5.78264E-001	1.13919E-004	0.00000E+000	5.78006E-001	0.00000E+000	9	...........	0
	1089	109	5.89074E-001	1.19712E-004	0.00000E+000	5.89006E-001	0.00000E+000	9	...........	0
	1100	110.1	6.00085E-001	1.37358E-004	0.00000E+000	6.00006E-001	0.00000E+000	9	...........	0

File: ZFO_h400_light.DTA
EXPLAIN
TAG	LSV
TITLE	LABEL	Linear Sweep Voltammetry	Test &Identifier
DATE	LABEL	7/5/2024	Date
TIME	LABEL	16:57:15	Time
NOTES	NOTES	1	&Notes...

PSTAT	PSTAT	L3FNano	Potentiostat
VINIT	POTEN	-5.00000E-001	F	&Initial E (V)
VFINAL	POTEN	6.00000E-001	F	&Final E (V)
SCANRATE	QUANT	9.99998E+000	&Scan Rate (mV/s)
STEPSIZE	QUANT	1.00000E+000	St&ep Size (mV)
IMODE	SELECTOR	0	I/E Range &Mode
IRANGE	QUANT	1.00000E+001	&Max Current (mA)
AREA	QUANT	1.00000E+000	Electrode &Area (cm^2)
ELECTRODETYPE	SELECTOR	0	Electrode Type
STRIPPING	TOGGLE	F	Used for Stripping
POLARITY	TOGGLE	F	Signal Polarity
CONDIT	TWOPARAM	F	1.50000E+001	0.00000E+000	Conditionin&g	Time(s)	E(V)
DELAY	TWOPARAM	F	3.00000E+001	0.00000E+000	Init. De&lay	Time(s)	Stab.(mV/s)
EQDELAY	QUANT	5.00000E+000	Equil. &Time (s)
IRCOMP	SELECTOR	0	IRCom&p
PFCOR	QUANT	5.00000E+001	PF Corr. (ohm)
SAMPLINGMODE	SELECTOR	0	Sampling &Mode
EOC	QUANT	0	Open Circuit (V)
PSTATMODEL	IQUANT	48	Pstat Model
PSTATSECTION	LABEL	IFC1000-07082	Pstat Section
PSTATSERIALNO	LABEL	07082	Pstat Serial Number
CTRLMODE	IQUANT	1	Control Mode
IESTAB	IQUANT	2	I/E Stability
CASPEED	IQUANT	2	Control Amp Speed
CONVENTION	IQUANT	1	Current Convention
ICHRANGE	IQUANT	2	Ich Range
ICHRANGEMODE	TOGGLE	F	Ich Auto Range
ICHOFFSETENABLE	TOGGLE	F	Ich Offset Enable
ICHOFFSET	QUANT	0	Ich Offset (V)
ICHFILTER	IQUANT	3	Ich Filter
VCHRANGE	IQUANT	2	Vch Range
VCHRANGEMODE	TOGGLE	T	Vch Auto Range
VCHOFFSETENABLE	TOGGLE	F	Vch Offset Enable
VCHOFFSET	QUANT	0	Vch Offset (V)
VCHFILTER	IQUANT	3	Vch Filter
IERANGELOWERLIMIT	IQUANT	4	I/E Range Lower Limit
IERANGEMODE	TOGGLE	T	I/E AutoRange
IERANGE	IQUANT	11	I/E Range
ACHSELECT	IQUANT	4	Ach Select
CABLEID	IQUANT	14	Cable ID
DCCALDATE	LABEL	7/3/2024	DC Calibration Date
ACCALDATE	LABEL	7/3/2024	AC Calibration Date
FRAMEWORKVERSION	QUANT	6.24	Framework Version
INSTRUMENTVERSION	LABEL	3.28	Instrument Version
CURVE	TABLE	1101
	Pt	T	Vf	Im	Vu	Sig	Ach	IERange	Over	Cycle
	#	s	V vs. Ref.	A	V	V	V	#	bits	#
	0	0.1	-5.00110E-001	-1.46991E-005	0.00000E+000	-4.99988E-001	0.00000E+000	11	...........	0
	11	1.2	-4.89099E-001	-1.72159E-005	0.00000E+000	-4.88988E-001	0.00000E+000	8	...........	0
	22	2.3	-4.78088E-001	-1.42991E-005	0.00000E+000	-4.77988E-001	0.00000E+000	8	...........	0
	33	3.4	-4.67077E-001	-1.16722E-005	0.00000E+000	-4.66987E-001	0.00000E+000	8	...........	0
	44	4.5	-4.56166E-001	-9.75874E-006	0.00000E+000	-4.55987E-001	0.00000E+000	8	...........	0
	55	5.6	-4.45055E-001	-8.90725E-006	0.00000E+000	-4.44986E-001	0.00000E+000	7	...........	0
	66	6.7	-4.34144E-001	-7.34416E-006	0.00000E+000	-4.33986E-001	0.00000E+000	7	...........	0
	77	7.8	-4.23133E-001	-5.93177E-006	0.00000E+000	-4.22985E-001	0.00000E+000	7	...........	0
	88	8.9	-4.12122E-001	-4.73477E-006	0.00000E+000	-4.11985E-001	0.00000E+000	7	...........	0
	99	10	-4.01011E-001	-3.97356E-006	0.00000E+000	-4.00984E-001	0.00000E+000	7	...........	0
	110	11.1	-3.90100E-001	-2.93094E-006	0.00000E+000	-3.89984E-001	0.00000E+000	7	...........	0
	121	12.2	-3.78989E-001	-1.55990E-006	0.00000E+000	-3.78984E-001	0.00000E+000	7	...........	0
	132	13.3	-3.68178E-001	-8.51373E-007	0.00000E+000	-3.67983E-001	0.00000E+000	7	...........	0
	143	14.4	-3.57067E-001	6.18777E-008	0.00000E+000	-3.56983E-001	0.00000E+000	7	...........	0
	154	15.5	-3.46056E-001	5.76686E-007	0.00000E+000	-3.45982E-001	0.00000E+000	7	...........	0
	165	16.6	-3.35045E-001	1.03981E-006	0.00000E+000	-3.34982E-001	0.00000E+000	7	...........	0
	176	17.7	-3.24034E-001	2.27148E-006	0.00000E+000	-3.23981E-001	0.00000E+000	7	...........	0
	187	18.8	-3.13023E-001	2.94034E-006	0.00000E+000	-3.12981E-001	0.00000E+000	7	...........	0
	198	19.9	-3.02113E-001	3.04803E-006	0.00000E+000	-3.01980E-001	0.00000E+000	7	...........	0
	209	21	-2.91002E-001	3.10705E-006	0.00000E+000	-2.90980E-001	0.00000E+000	7	...........	0
	220	22.1	-2.79991E-001	2.69193E-006	0.00000E+000	-2.79979E-001	0.00000E+000	7	...........	0
	231	23.2	-2.68980E-001	4.40874E-006	0.00000E+000	-2.68979E-001	0.00000E+000	7	...........	0
	242	24.3	-2.58069E-001	3.64686E-006	0.00000E+000	-2.57979E-001	0.00000E+000	7	...........	0
	253	25.4	-2.47058E-001	3.67320E-006	0.00000E+000	-2.46978E-001	0.00000E+000	7	...........	0
	264	26.5	-2.36047E-001	3.88226E-006	0.00000E+000	-2.35978E-001	0.00000E+000	7	...........	0
	275	27.6	-2.25006E-001	3.42514E-006	0.00000E+000	-2.24977E-001	0.00000E+000	7	...........	0
	286	28.7	-2.14005E-001	3.66053E-006	0.00000E+000	-2.13977E-001	0.00000E+000	7	...........	0
	297	29.8	-2.03004E-001	4.98456E-006	0.00000E+000	-2.02976E-001	0.00000E+000	7	...........	0
	308	30.9	-1.92004E-001	4.54044E-006	0.00000E+000	-1.91976E-001	0.00000E+000	7	...........	0
	319	32	-1.81003E-001	5.31065E-006	0.00000E+000	-1.80975E-001	0.00000E+000	7	...........	0
	330	33.1	-1.69952E-001	4.39007E-006	0.00000E+000	-1.69975E-001	0.00000E+000	7	...........	0
	341	34.2	-1.59021E-001	3.86359E-006	0.00000E+000	-1.59025E-001	0.00000E+000	7	...........	0
	352	35.3	-1.48100E-001	5.42402E-006	0.00000E+000	-1.48024E-001	0.00000E+000	7	...........	0
	363	36.4	-1.37039E-001	4.97856E-006	0.00000E+000	-1.37024E-001	0.00000E+000	7	...........	0
	374	37.5	-1.26058E-001	3.33978E-006	0.00000E+000	-1.26023E-001	0.00000E+000	7	...........	0
	385	38.6	-1.15027E-001	5.17695E-006	0.00000E+000	-1.15023E-001	0.00000E+000	7	...........	0
	396	39.7	-1.04036E-001	4.99023E-006	0.00000E+000	-1.04022E-001	0.00000E+000	7	...........	0
	407	40.8	-9.29949E-002	4.30004E-006	0.00000E+000	-9.30219E-002	0.00000E+000	7	...........	0
	418	41.9	-8.20340E-002	3.94928E-006	0.00000E+000	-8.20214E-002	0.00000E+000	7	...........	0
	429	43	-7.10631E-002	1.79735E-006	0.00000E+000	-7.10210E-002	0.00000E+000	7	...........	0
	440	44.1	-6.01022E-002	1.58963E-006	0.00000E+000	-6.00205E-002	0.00000E+000	7	...........	0
	451	45.2	-4.91013E-002	4.13733E-006	0.00000E+000	-4.90201E-002	0.00000E+000	7	...........	0
	462	46.3	-3.80703E-002	2.99302E-006	0.00000E+000	-3.80196E-002	0.00000E+000	7	...........	0
	473	47.4	-2.71294E-002	4.44275E-006	0.00000E+000	-2.70192E-002	0.00000E+000	7	...........	0
	484	48.5	-1.60992E-002	5.91915E-006	0.00000E+000	-1.60187E-002	0.00000E+000	7	...........	0
	495	49.6	-5.09922E-003	3.60885E-006	0.00000E+000	-5.01826E-003	0.00000E+000	7	...........	0
	506	50.7	5.87570E-003	6.41462E-006	0.00000E+000	5.98219E-003	0.00000E+000	7	...........	0
	517	51.8	1.68576E-002	3.57784E-006	0.00000E+000	1.69826E-002	0.00000E+000	7	...........	0
	528	52.9	2.78854E-002	7.28786E-006	0.00000E+000	2.79831E-002	0.00000E+000	7	...........	0
	539	54	3.89264E-002	7.97572E-006	0.00000E+000	3.89835E-002	0.00000E+000	7	...........	0
	550	55.1	4.98873E-002	4.67515E-006	0.00000E+000	4.99840E-002	0.00000E+000	7	.....h.....	0
	561	56.2	6.09082E-002	6.26571E-006	0.00000E+000	6.09844E-002	0.00000E+000	8	...........	0
	572	57.3	7.19092E-002	9.39711E-006	0.00000E+000	7.19849E-002	0.00000E+000	7	...........	0
	583	58.4	8.29202E-002	8.24252E-006	0.00000E+000	8.29853E-002	0.00000E+000	8	...........	0
	594	59.5	9.39311E-002	1.00516E-005	0.00000E+000	9.39858E-002	0.00000E+000	7	...........	0
	605	60.6	1.04922E-001	1.04257E-005	0.00000E+000	1.04986E-001	0.00000E+000	7	.....h.....	0
	616	61.7	1.15883E-001	6.64907E-006	0.00000E+000	1.15987E-001	0.00000E+000	8	...........	0
	627	62.8	1.26924E-001	1.25795E-005	0.00000E+000	1.26987E-001	0.00000E+000	8	...........	0
[...]
	671	67.2	1.70898E-001	1.09265E-005	0.00000E+000	1.70989E-001	0.00000E+000	7	....ih..i..	0
	682	68.3	1.81969E-001	6.80242E-006	0.00000E+000	1.81989E-001	0.00000E+000	8	...........	0
	693	69.4	1.92910E-001	9.54927E-006	0.00000E+000	1.92990E-001	0.00000E+000	8	...........	0
	704	70.5	2.03911E-001	1.43763E-005	0.00000E+000	2.03990E-001	0.00000E+000	8	...........	0
	715	71.6	2.14912E-001	1.09265E-005	0.00000E+000	2.14991E-001	0.00000E+000	7	....ih..i..	0
	726	72.7	2.25882E-001	7.74248E-006	0.00000E+000	2.25991E-001	0.00000E+000	8	...........	0
	737	73.8	2.36923E-001	9.54594E-006	0.00000E+000	2.36992E-001	0.00000E+000	8	...........	0
	748	74.9	2.47894E-001	1.50330E-005	0.00000E+000	2.47992E-001	0.00000E+000	8	...........	0
	759	76	2.58915E-001	9.29592E-006	0.00000E+000	2.58993E-001	0.00000E+000	8	...........	0
	770	77.1	2.70057E-001	1.09160E-005	0.00000E+000	2.69993E-001	0.00000E+000	8	...........	0
	781	78.2	2.81068E-001	1.86099E-005	0.00000E+000	2.80993E-001	0.00000E+000	8	...........	0
	792	79.3	2.92079E-001	1.19928E-005	0.00000E+000	2.91994E-001	0.00000E+000	8	...........	0
	803	80.4	3.02990E-001	1.36129E-005	0.00000E+000	3.02994E-001	0.00000E+000	8	...........	0
	814	81.5	3.14201E-001	1.52363E-005	0.00000E+000	3.13995E-001	0.00000E+000	8	...........	0
	825	82.6	3.25012E-001	1.32529E-005	0.00000E+000	3.24995E-001	0.00000E+000	8	...........	0
	836	83.7	3.36023E-001	2.22068E-005	0.00000E+000	3.35996E-001	0.00000E+000	8	...........	0
	847	84.8	3.47134E-001	2.65638E-005	0.00000E+000	3.46996E-001	0.00000E+000	8	...........	0
	858	85.9	3.58044E-001	2.21268E-005	0.00000E+000	3.57997E-001	0.00000E+000	8	...........	0
	869	87	3.69055E-001	2.85573E-005	0.00000E+000	3.68997E-001	0.00000E+000	8	...........	0
	880	88.1	3.80167E-001	2.67371E-005	0.00000E+000	3.79997E-001	0.00000E+000	8	...........	0
	891	89.2	3.91077E-001	2.65738E-005	0.00000E+000	3.90998E-001	0.00000E+000	8	...........	0
	902	90.3	4.02088E-001	3.63211E-005	0.00000E+000	4.01998E-001	0.00000E+000	8	...........	0
	913	91.4	4.13099E-001	2.81806E-005	0.00000E+000	4.12999E-001	0.00000E+000	8	...........	0
	924	92.5	4.24110E-001	3.42610E-005	0.00000E+000	4.23999E-001	0.00000E+000	8	...........	0
	935	93.6	4.35121E-001	4.75153E-005	0.00000E+000	4.35000E-001	0.00000E+000	8	...........	0
	946	94.7	4.46132E-001	4.77386E-005	0.00000E+000	4.46000E-001	0.00000E+000	8	...........	0
	957	95.8	4.57043E-001	4.20282E-005	0.00000E+000	4.57001E-001	0.00000E+000	8	...........	0
	968	96.9	4.68054E-001	5.96561E-005	0.00000E+000	4.68001E-001	0.00000E+000	8	...........	0
	979	98	4.79065E-001	5.13889E-005	0.00000E+000	4.79002E-001	0.00000E+000	8	...........	0
	990	99.1	4.90076E-001	6.61432E-005	0.00000E+000	4.90002E-001	0.00000E+000	8	...........	0
	1001	100.2	5.01087E-001	7.38038E-005	0.00000E+000	5.01002E-001	0.00000E+000	8	...........	0
	1012	101.3	5.12098E-001	6.84834E-005	0.00000E+000	5.12003E-001	0.00000E+000	8	...........	0
	1023	102.4	5.23209E-001	7.12436E-005	0.00000E+000	5.23003E-001	0.00000E+000	8	...........	0
	1034	103.5	5.34120E-001	8.01587E-005	0.00000E+000	5.34004E-001	0.00000E+000	9	...........	0
	1045	104.6	5.45131E-001	1.01966E-004	0.00000E+000	5.45004E-001	0.00000E+000	9	...........	0
	1056	105.7	5.56242E-001	9.28771E-005	0.00000E+000	5.56005E-001	0.00000E+000	9	...........	0
	1067	106.8	5.67153E-001	1.03098E-004	0.00000E+000	5.67005E-001	0.00000E+000	9	...........	0
	1078	107.9	5.78164E-001	1.24840E-004	0.00000E+000	5.78006E-001	0.00000E+000	9	...........	0
	1089	109	5.89074E-001	1.25306E-004	0.00000E+000	5.89006E-001	0.00000E+000	9	...........	0
	1100	110.1	6.00186E-001	1.34362E-004	0.00000E+000	6.00006E-001	0.00000E+000	9	...........	0