Folder: DataAnalysis/LSV ZFO (part 7)

File: ZFO_h200_light_reator.DTA
EXPLAIN
TAG	LSV
TITLE	LABEL	Linear Sweep Voltammetry	Test &Identifier
DATE	LABEL	7/5/2024	Date
TIME	LABEL	18:07:56	Time
NOTES	NOTES	1	&Notes...

PSTAT	PSTAT	L3FNano	Potentiostat
VINIT	POTEN	-5.00000E-001	F	&Initial E (V)
VFINAL	POTEN	6.00000E-001	F	&Final E (V)
SCANRATE	QUANT	9.99998E+000	&Scan Rate (mV/s)
STEPSIZE	QUANT	1.00000E+000	St&ep Size (mV)
IMODE	SELECTOR	0	I/E Range &Mode
IRANGE	QUANT	1.00000E+001	&Max Current (mA)
AREA	QUANT	1.00000E+000	Electrode &Area (cm^2)
ELECTRODETYPE	SELECTOR	0	Electrode Type
STRIPPING	TOGGLE	F	Used for Stripping
POLARITY	TOGGLE	F	Signal Polarity
CONDIT	TWOPARAM	F	1.50000E+001	0.00000E+000	Conditionin&g	Time(s)	E(V)
DELAY	TWOPARAM	F	3.00000E+001	0.00000E+000	Init. De&lay	Time(s)	Stab.(mV/s)
EQDELAY	QUANT	5.00000E+000	Equil. &Time (s)
IRCOMP	SELECTOR	0	IRCom&p
PFCOR	QUANT	5.00000E+001	PF Corr. (ohm)
SAMPLINGMODE	SELECTOR	0	Sampling &Mode
EOC	QUANT	0	Open Circuit (V)
PSTATMODEL	IQUANT	48	Pstat Model
PSTATSECTION	LABEL	IFC1000-07082	Pstat Section
PSTATSERIALNO	LABEL	07082	Pstat Serial Number
CTRLMODE	IQUANT	1	Control Mode
IESTAB	IQUANT	2	I/E Stability
CASPEED	IQUANT	2	Control Amp Speed
CONVENTION	IQUANT	1	Current Convention
ICHRANGE	IQUANT	2	Ich Range
ICHRANGEMODE	TOGGLE	F	Ich Auto Range
ICHOFFSETENABLE	TOGGLE	F	Ich Offset Enable
ICHOFFSET	QUANT	0	Ich Offset (V)
ICHFILTER	IQUANT	3	Ich Filter
VCHRANGE	IQUANT	2	Vch Range
VCHRANGEMODE	TOGGLE	T	Vch Auto Range
VCHOFFSETENABLE	TOGGLE	F	Vch Offset Enable
VCHOFFSET	QUANT	0	Vch Offset (V)
VCHFILTER	IQUANT	3	Vch Filter
IERANGELOWERLIMIT	IQUANT	4	I/E Range Lower Limit
IERANGEMODE	TOGGLE	T	I/E AutoRange
IERANGE	IQUANT	11	I/E Range
ACHSELECT	IQUANT	4	Ach Select
CABLEID	IQUANT	14	Cable ID
DCCALDATE	LABEL	7/3/2024	DC Calibration Date
ACCALDATE	LABEL	7/3/2024	AC Calibration Date
FRAMEWORKVERSION	QUANT	6.24	Framework Version
INSTRUMENTVERSION	LABEL	3.28	Instrument Version
CURVE	TABLE	1101
	Pt	T	Vf	Im	Vu	Sig	Ach	IERange	Over	Cycle
	#	s	V vs. Ref.	A	V	V	V	#	bits	#
	0	0.1	-5.00110E-001	-4.71743E-006	0.00000E+000	-4.99988E-001	0.00000E+000	11	...........	0
	11	1.2	-4.89099E-001	-6.08748E-006	0.00000E+000	-4.88988E-001	0.00000E+000	7	...........	0
	22	2.3	-4.77988E-001	-4.85147E-006	0.00000E+000	-4.77988E-001	0.00000E+000	7	...........	0
	33	3.4	-4.66977E-001	-3.36673E-006	0.00000E+000	-4.66987E-001	0.00000E+000	7	...........	0
	44	4.5	-4.56066E-001	-2.91427E-006	0.00000E+000	-4.55987E-001	0.00000E+000	7	...........	0
	55	5.6	-4.44955E-001	-1.74462E-006	0.00000E+000	-4.44986E-001	0.00000E+000	7	...........	0
	66	6.7	-4.34044E-001	-1.65626E-006	0.00000E+000	-4.33986E-001	0.00000E+000	7	...........	0
	77	7.8	-4.23033E-001	-1.00842E-006	0.00000E+000	-4.22985E-001	0.00000E+000	7	...........	0
	88	8.9	-4.12022E-001	-1.00308E-006	0.00000E+000	-4.11985E-001	0.00000E+000	7	...........	0
	99	10	-4.01011E-001	-2.88552E-007	0.00000E+000	-4.00984E-001	0.00000E+000	7	...........	0
	110	11.1	-3.90100E-001	2.06584E-007	0.00000E+000	-3.89984E-001	0.00000E+000	7	...........	0
	121	12.2	-3.78989E-001	6.48039E-007	0.00000E+000	-3.78984E-001	0.00000E+000	7	...........	0
	132	13.3	-3.67978E-001	2.32004E-008	0.00000E+000	-3.67983E-001	0.00000E+000	7	...........	0
	143	14.4	-3.57067E-001	7.56735E-007	0.00000E+000	-3.56983E-001	0.00000E+000	7	...........	0
	154	15.5	-3.46056E-001	2.14253E-007	0.00000E+000	-3.45982E-001	0.00000E+000	7	...........	0
	165	16.6	-3.35045E-001	8.47093E-007	0.00000E+000	-3.34982E-001	0.00000E+000	7	...........	0
	176	17.7	-3.23934E-001	4.82660E-007	0.00000E+000	-3.23981E-001	0.00000E+000	7	...........	0
	187	18.8	-3.13023E-001	7.86410E-007	0.00000E+000	-3.12981E-001	0.00000E+000	7	...........	0
	198	19.9	-3.01912E-001	2.00575E-006	0.00000E+000	-3.01980E-001	0.00000E+000	7	...........	0
	209	21	-2.91002E-001	1.84970E-006	0.00000E+000	-2.90980E-001	0.00000E+000	7	...........	0
	220	22.1	-2.79991E-001	1.68599E-006	0.00000E+000	-2.79979E-001	0.00000E+000	7	...........	0
	231	23.2	-2.69080E-001	3.22975E-006	0.00000E+000	-2.68979E-001	0.00000E+000	7	...........	0
	242	24.3	-2.58069E-001	2.30083E-006	0.00000E+000	-2.57979E-001	0.00000E+000	7	...........	0
	253	25.4	-2.46958E-001	3.20708E-006	0.00000E+000	-2.46978E-001	0.00000E+000	7	...........	0
	264	26.5	-2.35927E-001	3.66087E-006	0.00000E+000	-2.35978E-001	0.00000E+000	7	...........	0
	275	27.6	-2.24946E-001	4.98523E-006	0.00000E+000	-2.24977E-001	0.00000E+000	7	...........	0
	286	28.7	-2.13915E-001	3.67154E-006	0.00000E+000	-2.13977E-001	0.00000E+000	7	...........	0
	297	29.8	-2.02944E-001	4.20768E-006	0.00000E+000	-2.02976E-001	0.00000E+000	7	...........	0
	308	30.9	-1.91913E-001	5.52304E-006	0.00000E+000	-1.91976E-001	0.00000E+000	7	...........	0
	319	32	-1.80902E-001	5.30732E-006	0.00000E+000	-1.80975E-001	0.00000E+000	7	...........	0
	330	33.1	-1.69942E-001	6.09253E-006	0.00000E+000	-1.69975E-001	0.00000E+000	7	...........	0
	341	34.2	-1.59001E-001	7.60228E-006	0.00000E+000	-1.59025E-001	0.00000E+000	7	...........	0
	352	35.3	-1.48040E-001	6.17789E-006	0.00000E+000	-1.48024E-001	0.00000E+000	7	...........	0
	363	36.4	-1.37019E-001	8.33282E-006	0.00000E+000	-1.37024E-001	0.00000E+000	7	...........	0
	374	37.5	-1.25988E-001	7.34254E-006	0.00000E+000	-1.26023E-001	0.00000E+000	7	...........	0
	385	38.6	-1.15017E-001	9.64751E-006	0.00000E+000	-1.15023E-001	0.00000E+000	7	...........	0
	396	39.7	-1.04016E-001	8.11584E-006	0.00000E+000	-1.04022E-001	0.00000E+000	8	...........	0
	407	40.8	-9.29949E-002	1.03304E-005	0.00000E+000	-9.30219E-002	0.00000E+000	7	.....h.....	0
	418	41.9	-8.20340E-002	9.82929E-006	0.00000E+000	-8.20214E-002	0.00000E+000	8	...........	0
	429	43	-7.10131E-002	9.91263E-006	0.00000E+000	-7.10210E-002	0.00000E+000	8	...........	0
	440	44.1	-6.00321E-002	1.00326E-005	0.00000E+000	-6.00205E-002	0.00000E+000	8	...........	0
	451	45.2	-4.89912E-002	1.05560E-005	0.00000E+000	-4.90201E-002	0.00000E+000	8	...........	0
	462	46.3	-3.80002E-002	1.23495E-005	0.00000E+000	-3.80196E-002	0.00000E+000	8	...........	0
	473	47.4	-2.70193E-002	1.35162E-005	0.00000E+000	-2.70192E-002	0.00000E+000	8	...........	0
	484	48.5	-1.60211E-002	1.68598E-005	0.00000E+000	-1.60187E-002	0.00000E+000	8	...........	0
	495	49.6	-5.01314E-003	1.57864E-005	0.00000E+000	-5.01826E-003	0.00000E+000	8	...........	0
	506	50.7	5.99582E-003	1.93966E-005	0.00000E+000	5.98219E-003	0.00000E+000	8	...........	0
	517	51.8	1.69757E-002	2.00367E-005	0.00000E+000	1.69826E-002	0.00000E+000	8	...........	0
	528	52.9	2.80155E-002	2.28435E-005	0.00000E+000	2.79831E-002	0.00000E+000	8	...........	0
	539	54	3.89664E-002	2.47437E-005	0.00000E+000	3.89835E-002	0.00000E+000	8	...........	0
	550	55.1	4.99673E-002	2.59704E-005	0.00000E+000	4.99840E-002	0.00000E+000	8	...........	0
	561	56.2	6.09783E-002	3.20508E-005	0.00000E+000	6.09844E-002	0.00000E+000	8	...........	0
	572	57.3	7.19692E-002	3.39343E-005	0.00000E+000	7.19849E-002	0.00000E+000	8	...........	0
	583	58.4	8.29802E-002	3.52044E-005	0.00000E+000	8.29853E-002	0.00000E+000	8	...........	0
	594	59.5	9.39812E-002	4.01614E-005	0.00000E+000	9.39858E-002	0.00000E+000	8	...........	0
	605	60.6	1.04972E-001	4.04348E-005	0.00000E+000	1.04986E-001	0.00000E+000	8	...........	0
	616	61.7	1.15963E-001	4.43417E-005	0.00000E+000	1.15987E-001	0.00000E+000	8	...........	0
	627	62.8	1.26954E-001	4.96754E-005	0.00000E+000	1.26987E-001	0.00000E+000	8	...........	0
[...]
	671	67.2	1.70958E-001	5.86894E-005	0.00000E+000	1.70989E-001	0.00000E+000	8	...........	0
	682	68.3	1.81969E-001	6.07962E-005	0.00000E+000	1.81989E-001	0.00000E+000	8	...........	0
	693	69.4	1.92970E-001	6.18996E-005	0.00000E+000	1.92990E-001	0.00000E+000	8	...........	0
	704	70.5	2.03941E-001	6.79800E-005	0.00000E+000	2.03990E-001	0.00000E+000	8	...........	0
	715	71.6	2.14962E-001	6.76200E-005	0.00000E+000	2.14991E-001	0.00000E+000	8	...........	0
	726	72.7	2.25973E-001	7.03869E-005	0.00000E+000	2.25991E-001	0.00000E+000	8	...........	0
	737	73.8	2.36963E-001	7.12302E-005	0.00000E+000	2.36992E-001	0.00000E+000	8	...........	0
	748	74.9	2.47924E-001	7.26637E-005	0.00000E+000	2.47992E-001	0.00000E+000	8	...........	0
	759	76	2.58895E-001	7.44105E-005	0.00000E+000	2.58993E-001	0.00000E+000	8	...........	0
	770	77.1	2.69957E-001	7.58639E-005	0.00000E+000	2.69993E-001	0.00000E+000	8	...........	0
	781	78.2	2.81068E-001	8.18577E-005	0.00000E+000	2.80993E-001	0.00000E+000	8	...........	0
	792	79.3	2.92079E-001	8.05142E-005	0.00000E+000	2.91994E-001	0.00000E+000	8	...........	0
	803	80.4	3.03090E-001	8.12876E-005	0.00000E+000	3.02994E-001	0.00000E+000	8	...........	0
	814	81.5	3.14001E-001	8.48545E-005	0.00000E+000	3.13995E-001	0.00000E+000	8	...........	0
	825	82.6	3.25112E-001	8.46545E-005	0.00000E+000	3.24995E-001	0.00000E+000	8	...........	0
	836	83.7	3.36023E-001	9.00804E-005	0.00000E+000	3.35996E-001	0.00000E+000	9	...........	0
	847	84.8	3.47134E-001	8.91148E-005	0.00000E+000	3.46996E-001	0.00000E+000	9	...........	0
	858	85.9	3.58044E-001	9.06464E-005	0.00000E+000	3.57997E-001	0.00000E+000	9	...........	0
	869	87	3.69055E-001	9.02801E-005	0.00000E+000	3.68997E-001	0.00000E+000	9	...........	0
	880	88.1	3.80066E-001	9.16785E-005	0.00000E+000	3.79997E-001	0.00000E+000	9	...........	0
	891	89.2	3.91177E-001	9.71388E-005	0.00000E+000	3.90998E-001	0.00000E+000	9	...........	0
	902	90.3	4.02088E-001	9.77048E-005	0.00000E+000	4.01998E-001	0.00000E+000	9	...........	0
	913	91.4	4.13099E-001	9.64063E-005	0.00000E+000	4.12999E-001	0.00000E+000	9	...........	0
	924	92.5	4.24110E-001	1.01101E-004	0.00000E+000	4.23999E-001	0.00000E+000	9	...........	0
	935	93.6	4.35021E-001	1.00701E-004	0.00000E+000	4.35000E-001	0.00000E+000	9	...........	0
	946	94.7	4.46132E-001	9.88701E-005	0.00000E+000	4.46000E-001	0.00000E+000	9	...........	0
	957	95.8	4.57143E-001	1.02166E-004	0.00000E+000	4.57001E-001	0.00000E+000	9	...........	0
	968	96.9	4.68154E-001	1.06528E-004	0.00000E+000	4.68001E-001	0.00000E+000	9	...........	0
	979	98	4.79165E-001	1.05496E-004	0.00000E+000	4.79002E-001	0.00000E+000	9	...........	0
	990	99.1	4.90176E-001	1.04197E-004	0.00000E+000	4.90002E-001	0.00000E+000	9	...........	0
	1001	100.2	5.01187E-001	1.04863E-004	0.00000E+000	5.01002E-001	0.00000E+000	9	...........	0
	1012	101.3	5.12198E-001	1.09657E-004	0.00000E+000	5.12003E-001	0.00000E+000	9	...........	0
	1023	102.4	5.23209E-001	1.11622E-004	0.00000E+000	5.23003E-001	0.00000E+000	9	...........	0
	1034	103.5	5.34120E-001	1.11988E-004	0.00000E+000	5.34004E-001	0.00000E+000	9	...........	0
	1045	104.6	5.45031E-001	1.09491E-004	0.00000E+000	5.45004E-001	0.00000E+000	9	...........	0
	1056	105.7	5.56142E-001	1.09757E-004	0.00000E+000	5.56005E-001	0.00000E+000	9	...........	0
	1067	106.8	5.67253E-001	1.14618E-004	0.00000E+000	5.67005E-001	0.00000E+000	9	...........	0
	1078	107.9	5.78264E-001	1.14618E-004	0.00000E+000	5.78006E-001	0.00000E+000	9	...........	0
	1089	109	5.89175E-001	1.14618E-004	0.00000E+000	5.89006E-001	0.00000E+000	9	...........	0
	1100	110.1	6.00186E-001	1.19046E-004	0.00000E+000	6.00006E-001	0.00000E+000	9	...........	0

File: ZFO_h300_chop.DTA
EXPLAIN
TAG	LSV
TITLE	LABEL	Linear Sweep Voltammetry	Test &Identifier
DATE	LABEL	7/5/2024	Date
TIME	LABEL	16:44:52	Time
NOTES	NOTES	1	&Notes...

PSTAT	PSTAT	L3FNano	Potentiostat
VINIT	POTEN	-5.00000E-001	F	&Initial E (V)
VFINAL	POTEN	6.00000E-001	F	&Final E (V)
SCANRATE	QUANT	9.99998E+000	&Scan Rate (mV/s)
STEPSIZE	QUANT	1.00000E+000	St&ep Size (mV)
IMODE	SELECTOR	0	I/E Range &Mode
IRANGE	QUANT	1.00000E+001	&Max Current (mA)
AREA	QUANT	1.00000E+000	Electrode &Area (cm^2)
ELECTRODETYPE	SELECTOR	0	Electrode Type
STRIPPING	TOGGLE	F	Used for Stripping
POLARITY	TOGGLE	F	Signal Polarity
CONDIT	TWOPARAM	F	1.50000E+001	0.00000E+000	Conditionin&g	Time(s)	E(V)
DELAY	TWOPARAM	F	3.00000E+001	0.00000E+000	Init. De&lay	Time(s)	Stab.(mV/s)
EQDELAY	QUANT	5.00000E+000	Equil. &Time (s)
IRCOMP	SELECTOR	0	IRCom&p
PFCOR	QUANT	5.00000E+001	PF Corr. (ohm)
SAMPLINGMODE	SELECTOR	0	Sampling &Mode
EOC	QUANT	0	Open Circuit (V)
PSTATMODEL	IQUANT	48	Pstat Model
PSTATSECTION	LABEL	IFC1000-07082	Pstat Section
PSTATSERIALNO	LABEL	07082	Pstat Serial Number
CTRLMODE	IQUANT	1	Control Mode
IESTAB	IQUANT	2	I/E Stability
CASPEED	IQUANT	2	Control Amp Speed
CONVENTION	IQUANT	1	Current Convention
ICHRANGE	IQUANT	2	Ich Range
ICHRANGEMODE	TOGGLE	F	Ich Auto Range
ICHOFFSETENABLE	TOGGLE	F	Ich Offset Enable
ICHOFFSET	QUANT	0	Ich Offset (V)
ICHFILTER	IQUANT	3	Ich Filter
VCHRANGE	IQUANT	2	Vch Range
VCHRANGEMODE	TOGGLE	T	Vch Auto Range
VCHOFFSETENABLE	TOGGLE	F	Vch Offset Enable
VCHOFFSET	QUANT	0	Vch Offset (V)
VCHFILTER	IQUANT	3	Vch Filter
IERANGELOWERLIMIT	IQUANT	4	I/E Range Lower Limit
IERANGEMODE	TOGGLE	T	I/E AutoRange
IERANGE	IQUANT	11	I/E Range
ACHSELECT	IQUANT	4	Ach Select
CABLEID	IQUANT	14	Cable ID
DCCALDATE	LABEL	7/3/2024	DC Calibration Date
ACCALDATE	LABEL	7/3/2024	AC Calibration Date
FRAMEWORKVERSION	QUANT	6.24	Framework Version
INSTRUMENTVERSION	LABEL	3.28	Instrument Version
CURVE	TABLE	1101
	Pt	T	Vf	Im	Vu	Sig	Ach	IERange	Over	Cycle
	#	s	V vs. Ref.	A	V	V	V	#	bits	#
	0	0.1	-4.99909E-001	-1.46991E-005	0.00000E+000	-4.99988E-001	0.00000E+000	11	...........	0
	11	1.2	-4.88999E-001	-1.60858E-005	0.00000E+000	-4.88988E-001	0.00000E+000	8	...........	0
	22	2.3	-4.77988E-001	-1.34823E-005	0.00000E+000	-4.77988E-001	0.00000E+000	8	...........	0
	33	3.4	-4.66977E-001	-1.12888E-005	0.00000E+000	-4.66987E-001	0.00000E+000	8	...........	0
	44	4.5	-4.55966E-001	-9.48205E-006	0.00000E+000	-4.55987E-001	0.00000E+000	8	...........	0
	55	5.6	-4.44955E-001	-7.53421E-006	0.00000E+000	-4.44986E-001	0.00000E+000	7	...........	0
	66	6.7	-4.33944E-001	-6.61829E-006	0.00000E+000	-4.33986E-001	0.00000E+000	7	...........	0
	77	7.8	-4.23033E-001	-5.62368E-006	0.00000E+000	-4.22985E-001	0.00000E+000	7	...........	0
	88	8.9	-4.11922E-001	-4.70943E-006	0.00000E+000	-4.11985E-001	0.00000E+000	7	...........	0
	99	10	-4.00911E-001	-6.03980E-006	0.00000E+000	-4.00984E-001	0.00000E+000	7	...........	0
	110	11.1	-3.90000E-001	-3.44342E-006	0.00000E+000	-3.89984E-001	0.00000E+000	7	...........	0
	121	12.2	-3.78989E-001	-2.71255E-006	0.00000E+000	-3.78984E-001	0.00000E+000	7	...........	0
	132	13.3	-3.67978E-001	-2.12939E-006	0.00000E+000	-3.67983E-001	0.00000E+000	7	...........	0
	143	14.4	-3.56967E-001	-1.68694E-006	0.00000E+000	-3.56983E-001	0.00000E+000	7	...........	0
	154	15.5	-3.45956E-001	9.84798E-007	0.00000E+000	-3.45982E-001	0.00000E+000	7	...........	0
	165	16.6	-3.34945E-001	-3.97248E-007	0.00000E+000	-3.34982E-001	0.00000E+000	7	...........	0
	176	17.7	-3.23934E-001	-3.30897E-007	0.00000E+000	-3.23981E-001	0.00000E+000	7	...........	0
	187	18.8	-3.12923E-001	1.12892E-007	0.00000E+000	-3.12981E-001	0.00000E+000	7	...........	0
	198	19.9	-3.01812E-001	9.38865E-008	0.00000E+000	-3.01980E-001	0.00000E+000	7	...........	0
	209	21	-2.90901E-001	-9.83743E-007	0.00000E+000	-2.90980E-001	0.00000E+000	7	...........	0
	220	22.1	-2.79890E-001	-4.34925E-007	0.00000E+000	-2.79979E-001	0.00000E+000	7	...........	0
	231	23.2	-2.68880E-001	-2.83884E-007	0.00000E+000	-2.68979E-001	0.00000E+000	7	...........	0
	242	24.3	-2.57969E-001	-1.12837E-007	0.00000E+000	-2.57979E-001	0.00000E+000	7	...........	0
	253	25.4	-2.46858E-001	6.82107E-006	0.00000E+000	-2.46978E-001	0.00000E+000	7	...........	0
	264	26.5	-2.35877E-001	1.76101E-006	0.00000E+000	-2.35978E-001	0.00000E+000	7	...........	0
	275	27.6	-2.24896E-001	1.65265E-006	0.00000E+000	-2.24977E-001	0.00000E+000	7	...........	0
	286	28.7	-2.13855E-001	1.73267E-006	0.00000E+000	-2.13977E-001	0.00000E+000	7	...........	0
	297	29.8	-2.02884E-001	1.52428E-006	0.00000E+000	-2.02976E-001	0.00000E+000	7	...........	0
	308	30.9	-1.91863E-001	-8.23032E-007	0.00000E+000	-1.91976E-001	0.00000E+000	7	...........	0
	319	32	-1.80882E-001	-2.44206E-007	0.00000E+000	-1.80975E-001	0.00000E+000	7	...........	0
	330	33.1	-1.69881E-001	-4.78191E-008	0.00000E+000	-1.69975E-001	0.00000E+000	7	...........	0
	341	34.2	-1.58911E-001	6.15443E-008	0.00000E+000	-1.59025E-001	0.00000E+000	7	...........	0
	352	35.3	-1.47990E-001	1.07381E-005	0.00000E+000	-1.48024E-001	0.00000E+000	7	....ih.....	0
	363	36.4	-1.36939E-001	3.84258E-006	0.00000E+000	-1.37024E-001	0.00000E+000	7	...........	0
	374	37.5	-1.25998E-001	3.22141E-006	0.00000E+000	-1.26023E-001	0.00000E+000	7	...........	0
	385	38.6	-1.14957E-001	3.62786E-006	0.00000E+000	-1.15023E-001	0.00000E+000	7	...........	0
	396	39.7	-1.03956E-001	3.38279E-006	0.00000E+000	-1.04022E-001	0.00000E+000	7	...........	0
	407	40.8	-9.29649E-002	-5.05945E-007	0.00000E+000	-9.30219E-002	0.00000E+000	7	...........	0
	418	41.9	-8.19640E-002	-1.31842E-007	0.00000E+000	-8.20214E-002	0.00000E+000	7	...........	0
	429	43	-7.09630E-002	3.82046E-008	0.00000E+000	-7.10210E-002	0.00000E+000	7	...........	0
	440	44.1	-5.99721E-002	1.02556E-007	0.00000E+000	-6.00205E-002	0.00000E+000	7	...........	0
	451	45.2	-4.89912E-002	1.32564E-007	0.00000E+000	-4.90201E-002	0.00000E+000	7	...........	0
	462	46.3	-3.79802E-002	6.54266E-006	0.00000E+000	-3.80196E-002	0.00000E+000	7	...........	0
	473	47.4	-2.69792E-002	5.38667E-006	0.00000E+000	-2.70192E-002	0.00000E+000	7	...........	0
	484	48.5	-1.59660E-002	5.73410E-006	0.00000E+000	-1.60187E-002	0.00000E+000	7	...........	0
	495	49.6	-4.97210E-003	5.02157E-006	0.00000E+000	-5.01826E-003	0.00000E+000	7	...........	0
	506	50.7	6.03886E-003	-1.05976E-006	0.00000E+000	5.98219E-003	0.00000E+000	7	...........	0
	517	51.8	1.69407E-002	-3.94581E-007	0.00000E+000	1.69826E-002	0.00000E+000	7	...........	0
	528	52.9	2.80555E-002	1.18640E-008	0.00000E+000	2.79831E-002	0.00000E+000	7	...........	0
	539	54	3.90365E-002	1.19894E-007	0.00000E+000	3.89835E-002	0.00000E+000	7	...........	0
	550	55.1	5.00374E-002	1.27229E-007	0.00000E+000	4.99840E-002	0.00000E+000	7	...........	0
	561	56.2	6.10284E-002	8.63254E-006	0.00000E+000	6.09844E-002	0.00000E+000	8	...........	0
	572	57.3	7.20093E-002	7.70931E-006	0.00000E+000	7.19849E-002	0.00000E+000	7	...........	0
	583	58.4	8.30303E-002	7.09714E-006	0.00000E+000	8.29853E-002	0.00000E+000	7	...........	0
	594	59.5	9.40512E-002	7.30587E-006	0.00000E+000	9.39858E-002	0.00000E+000	7	...........	0
	605	60.6	1.05012E-001	-1.78963E-006	0.00000E+000	1.04986E-001	0.00000E+000	7	...........	0
	616	61.7	1.16033E-001	-3.68907E-007	0.00000E+000	1.15987E-001	0.00000E+000	7	...........	0
	627	62.8	1.27034E-001	-2.80671E-009	0.00000E+000	1.26987E-001	0.00000E+000	7	...........	0
[...]
	671	67.2	1.71008E-001	1.02860E-005	0.00000E+000	1.70989E-001	0.00000E+000	8	...........	0
	682	68.3	1.82009E-001	9.67928E-006	0.00000E+000	1.81989E-001	0.00000E+000	8	...........	0
	693	69.4	1.92990E-001	9.30259E-006	0.00000E+000	1.92990E-001	0.00000E+000	8	...........	0
	704	70.5	2.04001E-001	-1.34351E-006	0.00000E+000	2.03990E-001	0.00000E+000	7	...........	0
	715	71.6	2.15022E-001	-3.25562E-007	0.00000E+000	2.14991E-001	0.00000E+000	7	...........	0
	726	72.7	2.26013E-001	1.94112E-010	0.00000E+000	2.25991E-001	0.00000E+000	7	...........	0
	737	73.8	2.37004E-001	1.19227E-007	0.00000E+000	2.36992E-001	0.00000E+000	7	...........	0
	748	74.9	2.47994E-001	2.26590E-007	0.00000E+000	2.47992E-001	0.00000E+000	7	...........	0
	759	76	2.58975E-001	1.35362E-005	0.00000E+000	2.58993E-001	0.00000E+000	8	...........	0
	770	77.1	2.70157E-001	1.26195E-005	0.00000E+000	2.69993E-001	0.00000E+000	8	...........	0
	781	78.2	2.81068E-001	1.22361E-005	0.00000E+000	2.80993E-001	0.00000E+000	8	...........	0
	792	79.3	2.92079E-001	1.27628E-005	0.00000E+000	2.91994E-001	0.00000E+000	8	...........	0
	803	80.4	3.03090E-001	-1.58157E-006	0.00000E+000	3.02994E-001	0.00000E+000	7	...........	0
	814	81.5	3.14101E-001	-4.17587E-007	0.00000E+000	3.13995E-001	0.00000E+000	7	...........	0
	825	82.6	3.25112E-001	-4.78191E-008	0.00000E+000	3.24995E-001	0.00000E+000	7	...........	0
	836	83.7	3.36223E-001	1.09224E-007	0.00000E+000	3.35996E-001	0.00000E+000	7	...........	0
	847	84.8	3.47234E-001	2.09585E-007	0.00000E+000	3.46996E-001	0.00000E+000	7	...........	0
	858	85.9	3.58245E-001	1.73698E-005	0.00000E+000	3.57997E-001	0.00000E+000	8	...........	0
	869	87	3.69156E-001	1.63297E-005	0.00000E+000	3.68997E-001	0.00000E+000	8	...........	0
	880	88.1	3.80066E-001	1.48763E-005	0.00000E+000	3.79997E-001	0.00000E+000	8	...........	0
	891	89.2	3.91177E-001	1.60697E-005	0.00000E+000	3.90998E-001	0.00000E+000	8	...........	0
	902	90.3	4.02188E-001	1.53763E-005	0.00000E+000	4.01998E-001	0.00000E+000	8	...........	0
	913	91.4	4.13199E-001	-4.84939E-007	0.00000E+000	4.12999E-001	0.00000E+000	7	...........	0
	924	92.5	4.24210E-001	-7.14923E-008	0.00000E+000	4.23999E-001	0.00000E+000	7	...........	0
	935	93.6	4.35121E-001	1.36565E-007	0.00000E+000	4.35000E-001	0.00000E+000	7	...........	0
	946	94.7	4.46232E-001	2.13919E-007	0.00000E+000	4.46000E-001	0.00000E+000	7	...........	0
	957	95.8	4.57143E-001	2.20768E-005	0.00000E+000	4.57001E-001	0.00000E+000	8	...........	0
	968	96.9	4.68154E-001	1.83032E-005	0.00000E+000	4.68001E-001	0.00000E+000	8	...........	0
	979	98	4.79165E-001	1.80032E-005	0.00000E+000	4.79002E-001	0.00000E+000	8	...........	0
	990	99.1	4.90176E-001	1.93266E-005	0.00000E+000	4.90002E-001	0.00000E+000	8	...........	0
	1001	100.2	5.01287E-001	1.93133E-005	0.00000E+000	5.01002E-001	0.00000E+000	8	...........	0
	1012	101.3	5.12198E-001	-4.16920E-007	0.00000E+000	5.12003E-001	0.00000E+000	7	...........	0
	1023	102.4	5.23209E-001	-1.11423E-008	0.00000E+000	5.23003E-001	0.00000E+000	7	...........	0
	1034	103.5	5.34220E-001	1.55237E-007	0.00000E+000	5.34004E-001	0.00000E+000	7	...........	0
	1045	104.6	5.45231E-001	2.61266E-007	0.00000E+000	5.45004E-001	0.00000E+000	7	...........	0
	1056	105.7	5.56242E-001	2.63271E-005	0.00000E+000	5.56005E-001	0.00000E+000	8	...........	0
	1067	106.8	5.67353E-001	2.21968E-005	0.00000E+000	5.67005E-001	0.00000E+000	8	...........	0
	1078	107.9	5.78164E-001	2.22868E-005	0.00000E+000	5.78006E-001	0.00000E+000	8	...........	0
	1089	109	5.89175E-001	2.25568E-005	0.00000E+000	5.89006E-001	0.00000E+000	8	...........	0
	1100	110.1	6.00085E-001	2.25202E-005	0.00000E+000	6.00006E-001	0.00000E+000	8	...........	0