Folder: DataAnalysis/LSV ZFO (part 4)

File: ZFO_h200_chop.DTA
EXPLAIN
TAG	LSV
TITLE	LABEL	Linear Sweep Voltammetry	Test &Identifier
DATE	LABEL	7/5/2024	Date
TIME	LABEL	16:30:21	Time
NOTES	NOTES	1	&Notes...

PSTAT	PSTAT	L3FNano	Potentiostat
VINIT	POTEN	-5.00000E-001	F	&Initial E (V)
VFINAL	POTEN	6.00000E-001	F	&Final E (V)
SCANRATE	QUANT	9.99998E+000	&Scan Rate (mV/s)
STEPSIZE	QUANT	1.00000E+000	St&ep Size (mV)
IMODE	SELECTOR	0	I/E Range &Mode
IRANGE	QUANT	1.00000E+001	&Max Current (mA)
AREA	QUANT	1.00000E+000	Electrode &Area (cm^2)
ELECTRODETYPE	SELECTOR	0	Electrode Type
STRIPPING	TOGGLE	F	Used for Stripping
POLARITY	TOGGLE	F	Signal Polarity
CONDIT	TWOPARAM	F	1.50000E+001	0.00000E+000	Conditionin&g	Time(s)	E(V)
DELAY	TWOPARAM	F	3.00000E+001	0.00000E+000	Init. De&lay	Time(s)	Stab.(mV/s)
EQDELAY	QUANT	5.00000E+000	Equil. &Time (s)
IRCOMP	SELECTOR	0	IRCom&p
PFCOR	QUANT	5.00000E+001	PF Corr. (ohm)
SAMPLINGMODE	SELECTOR	0	Sampling &Mode
EOC	QUANT	0	Open Circuit (V)
PSTATMODEL	IQUANT	48	Pstat Model
PSTATSECTION	LABEL	IFC1000-07082	Pstat Section
PSTATSERIALNO	LABEL	07082	Pstat Serial Number
CTRLMODE	IQUANT	1	Control Mode
IESTAB	IQUANT	2	I/E Stability
CASPEED	IQUANT	2	Control Amp Speed
CONVENTION	IQUANT	1	Current Convention
ICHRANGE	IQUANT	2	Ich Range
ICHRANGEMODE	TOGGLE	F	Ich Auto Range
ICHOFFSETENABLE	TOGGLE	F	Ich Offset Enable
ICHOFFSET	QUANT	0	Ich Offset (V)
ICHFILTER	IQUANT	3	Ich Filter
VCHRANGE	IQUANT	2	Vch Range
VCHRANGEMODE	TOGGLE	T	Vch Auto Range
VCHOFFSETENABLE	TOGGLE	F	Vch Offset Enable
VCHOFFSET	QUANT	0	Vch Offset (V)
VCHFILTER	IQUANT	3	Vch Filter
IERANGELOWERLIMIT	IQUANT	4	I/E Range Lower Limit
IERANGEMODE	TOGGLE	T	I/E AutoRange
IERANGE	IQUANT	11	I/E Range
ACHSELECT	IQUANT	4	Ach Select
CABLEID	IQUANT	14	Cable ID
DCCALDATE	LABEL	7/3/2024	DC Calibration Date
ACCALDATE	LABEL	7/3/2024	AC Calibration Date
FRAMEWORKVERSION	QUANT	6.24	Framework Version
INSTRUMENTVERSION	LABEL	3.28	Instrument Version
CURVE	TABLE	1101
	Pt	T	Vf	Im	Vu	Sig	Ach	IERange	Over	Cycle
	#	s	V vs. Ref.	A	V	V	V	#	bits	#
	0	0.1	-5.00110E-001	-1.94370E-004	0.00000E+000	-4.99988E-001	0.00000E+000	11	...........	0
	11	1.2	-4.88999E-001	-1.47274E-004	0.00000E+000	-4.88988E-001	0.00000E+000	9	...........	0
	22	2.3	-4.78088E-001	-1.16644E-004	0.00000E+000	-4.77988E-001	0.00000E+000	9	...........	0
	33	3.4	-4.67077E-001	-9.30714E-005	0.00000E+000	-4.66987E-001	0.00000E+000	9	...........	0
	44	4.5	-4.55866E-001	-7.58200E-005	0.00000E+000	-4.55987E-001	0.00000E+000	8	...........	0
	55	5.6	-4.44955E-001	-6.04489E-005	0.00000E+000	-4.44986E-001	0.00000E+000	8	...........	0
	66	6.7	-4.34044E-001	-4.79914E-005	0.00000E+000	-4.33986E-001	0.00000E+000	8	...........	0
	77	7.8	-4.23133E-001	-3.73740E-005	0.00000E+000	-4.22985E-001	0.00000E+000	8	...........	0
	88	8.9	-4.12022E-001	-2.95701E-005	0.00000E+000	-4.11985E-001	0.00000E+000	8	...........	0
	99	10	-4.01011E-001	-2.27930E-005	0.00000E+000	-4.00984E-001	0.00000E+000	8	...........	0
	110	11.1	-3.90100E-001	-1.77826E-005	0.00000E+000	-3.89984E-001	0.00000E+000	8	...........	0
	121	12.2	-3.78889E-001	-1.56358E-005	0.00000E+000	-3.78984E-001	0.00000E+000	8	...........	0
	132	13.3	-3.67878E-001	-1.09855E-005	0.00000E+000	-3.67983E-001	0.00000E+000	8	...........	0
	143	14.4	-3.57067E-001	-6.94605E-006	0.00000E+000	-3.56983E-001	0.00000E+000	7	...........	0
	154	15.5	-3.45956E-001	-1.56324E-006	0.00000E+000	-3.45982E-001	0.00000E+000	7	...........	0
	165	16.6	-3.34945E-001	-4.63600E-007	0.00000E+000	-3.34982E-001	0.00000E+000	7	...........	0
	176	17.7	-3.24034E-001	2.47154E-006	0.00000E+000	-3.23981E-001	0.00000E+000	7	...........	0
	187	18.8	-3.13023E-001	5.25931E-006	0.00000E+000	-3.12981E-001	0.00000E+000	7	...........	0
	198	19.9	-3.01912E-001	7.82068E-006	0.00000E+000	-3.01980E-001	0.00000E+000	7	...........	0
	209	21	-2.91002E-001	9.64595E-006	0.00000E+000	-2.90980E-001	0.00000E+000	8	...........	0
	220	22.1	-2.79991E-001	1.29495E-005	0.00000E+000	-2.79979E-001	0.00000E+000	8	...........	0
	231	23.2	-2.68980E-001	1.59131E-005	0.00000E+000	-2.68979E-001	0.00000E+000	8	...........	0
	242	24.3	-2.57969E-001	1.92300E-005	0.00000E+000	-2.57979E-001	0.00000E+000	8	...........	0
	253	25.4	-2.47058E-001	2.92440E-005	0.00000E+000	-2.46978E-001	0.00000E+000	8	...........	0
	264	26.5	-2.35927E-001	2.74372E-005	0.00000E+000	-2.35978E-001	0.00000E+000	8	...........	0
	275	27.6	-2.24956E-001	3.01140E-005	0.00000E+000	-2.24977E-001	0.00000E+000	8	...........	0
	286	28.7	-2.13985E-001	3.29876E-005	0.00000E+000	-2.13977E-001	0.00000E+000	8	...........	0
	297	29.8	-2.02974E-001	3.37210E-005	0.00000E+000	-2.02976E-001	0.00000E+000	8	...........	0
	308	30.9	-1.91923E-001	3.21875E-005	0.00000E+000	-1.91976E-001	0.00000E+000	8	...........	0
	319	32	-1.80942E-001	3.24475E-005	0.00000E+000	-1.80975E-001	0.00000E+000	8	...........	0
	330	33.1	-1.69952E-001	3.21208E-005	0.00000E+000	-1.69975E-001	0.00000E+000	8	...........	0
	341	34.2	-1.59021E-001	3.24042E-005	0.00000E+000	-1.59025E-001	0.00000E+000	8	...........	0
	352	35.3	-1.48040E-001	4.23216E-005	0.00000E+000	-1.48024E-001	0.00000E+000	8	...........	0
	363	36.4	-1.36989E-001	3.50344E-005	0.00000E+000	-1.37024E-001	0.00000E+000	8	...........	0
	374	37.5	-1.26028E-001	3.37576E-005	0.00000E+000	-1.26023E-001	0.00000E+000	8	...........	0
	385	38.6	-1.15027E-001	3.62478E-005	0.00000E+000	-1.15023E-001	0.00000E+000	8	...........	0
	396	39.7	-1.04036E-001	3.55011E-005	0.00000E+000	-1.04022E-001	0.00000E+000	8	...........	0
	407	40.8	-9.30450E-002	3.29209E-005	0.00000E+000	-9.30219E-002	0.00000E+000	8	...........	0
	418	41.9	-8.20441E-002	3.38376E-005	0.00000E+000	-8.20214E-002	0.00000E+000	8	...........	0
	429	43	-7.10531E-002	3.47110E-005	0.00000E+000	-7.10210E-002	0.00000E+000	8	...........	0
	440	44.1	-6.00422E-002	3.52111E-005	0.00000E+000	-6.00205E-002	0.00000E+000	8	...........	0
	451	45.2	-4.90212E-002	3.57478E-005	0.00000E+000	-4.90201E-002	0.00000E+000	8	...........	0
	462	46.3	-3.80102E-002	3.99181E-005	0.00000E+000	-3.80196E-002	0.00000E+000	8	...........	0
	473	47.4	-2.70393E-002	4.21482E-005	0.00000E+000	-2.70192E-002	0.00000E+000	8	...........	0
	484	48.5	-1.60932E-002	4.20082E-005	0.00000E+000	-1.60187E-002	0.00000E+000	8	...........	0
	495	49.6	-5.02215E-003	4.20182E-005	0.00000E+000	-5.01826E-003	0.00000E+000	8	...........	0
	506	50.7	5.92775E-003	3.18075E-005	0.00000E+000	5.98219E-003	0.00000E+000	8	...........	0
	517	51.8	1.69918E-002	3.76579E-005	0.00000E+000	1.69826E-002	0.00000E+000	8	...........	0
	528	52.9	2.79655E-002	3.90180E-005	0.00000E+000	2.79831E-002	0.00000E+000	8	...........	0
	539	54	3.89664E-002	3.96280E-005	0.00000E+000	3.89835E-002	0.00000E+000	8	...........	0
	550	55.1	4.99273E-002	9.71154E-005	0.00000E+000	4.99840E-002	0.00000E+000	8	...........	0
	561	56.2	6.09683E-002	5.86960E-005	0.00000E+000	6.09844E-002	0.00000E+000	8	...........	0
	572	57.3	7.19492E-002	6.39731E-005	0.00000E+000	7.19849E-002	0.00000E+000	8	...........	0
	583	58.4	8.29602E-002	6.54032E-005	0.00000E+000	8.29853E-002	0.00000E+000	8	...........	0
	594	59.5	9.39711E-002	6.88534E-005	0.00000E+000	9.39858E-002	0.00000E+000	8	...........	0
	605	60.6	1.04952E-001	3.46944E-005	0.00000E+000	1.04986E-001	0.00000E+000	8	...........	0
	616	61.7	1.15973E-001	4.22649E-005	0.00000E+000	1.15987E-001	0.00000E+000	8	...........	0
	627	62.8	1.26954E-001	4.48817E-005	0.00000E+000	1.26987E-001	0.00000E+000	8	...........	0
[...]
	671	67.2	1.70978E-001	1.04297E-004	0.00000E+000	1.70989E-001	0.00000E+000	9	...........	0
	682	68.3	1.81959E-001	1.10490E-004	0.00000E+000	1.81989E-001	0.00000E+000	9	...........	0
	693	69.4	1.92930E-001	1.12820E-004	0.00000E+000	1.92990E-001	0.00000E+000	9	...........	0
	704	70.5	2.03901E-001	4.90420E-005	0.00000E+000	2.03990E-001	0.00000E+000	8	...........	0
	715	71.6	2.14972E-001	5.45091E-005	0.00000E+000	2.14991E-001	0.00000E+000	8	...........	0
	726	72.7	2.25943E-001	5.77293E-005	0.00000E+000	2.25991E-001	0.00000E+000	8	...........	0
	737	73.8	2.36943E-001	6.03695E-005	0.00000E+000	2.36992E-001	0.00000E+000	8	...........	0
	748	74.9	2.47944E-001	6.31997E-005	0.00000E+000	2.47992E-001	0.00000E+000	8	...........	0
	759	76	2.58925E-001	1.46248E-004	0.00000E+000	2.58993E-001	0.00000E+000	9	...........	0
	770	77.1	2.70057E-001	1.46215E-004	0.00000E+000	2.69993E-001	0.00000E+000	9	...........	0
	781	78.2	2.81068E-001	1.53672E-004	0.00000E+000	2.80993E-001	0.00000E+000	9	...........	0
	792	79.3	2.92079E-001	1.59532E-004	0.00000E+000	2.91994E-001	0.00000E+000	9	...........	0
	803	80.4	3.03190E-001	7.48872E-005	0.00000E+000	3.02994E-001	0.00000E+000	8	...........	0
	814	81.5	3.14101E-001	7.85508E-005	0.00000E+000	3.13995E-001	0.00000E+000	8	...........	0
	825	82.6	3.25112E-001	8.21010E-005	0.00000E+000	3.24995E-001	0.00000E+000	8	...........	0
	836	83.7	3.36123E-001	8.57546E-005	0.00000E+000	3.35996E-001	0.00000E+000	8	...........	0
	847	84.8	3.47134E-001	9.01137E-005	0.00000E+000	3.46996E-001	0.00000E+000	9	...........	0
	858	85.9	3.58245E-001	1.94192E-004	0.00000E+000	3.57997E-001	0.00000E+000	9	...........	0
	869	87	3.69156E-001	2.00218E-004	0.00000E+000	3.68997E-001	0.00000E+000	9	...........	0
	880	88.1	3.80267E-001	2.21892E-004	0.00000E+000	3.79997E-001	0.00000E+000	9	...........	0
	891	89.2	3.91177E-001	2.37108E-004	0.00000E+000	3.90998E-001	0.00000E+000	9	...........	0
	902	90.3	4.02188E-001	1.65226E-004	0.00000E+000	4.01998E-001	0.00000E+000	9	...........	0
	913	91.4	4.13199E-001	1.99385E-004	0.00000E+000	4.12999E-001	0.00000E+000	9	...........	0
	924	92.5	4.24110E-001	2.38073E-004	0.00000E+000	4.23999E-001	0.00000E+000	9	...........	0
	935	93.6	4.35121E-001	2.77860E-004	0.00000E+000	4.35000E-001	0.00000E+000	9	...........	0
	946	94.7	4.46232E-001	3.20577E-004	0.00000E+000	4.46000E-001	0.00000E+000	9	...........	0
	957	95.8	4.57143E-001	4.86449E-004	0.00000E+000	4.57001E-001	0.00000E+000	9	...........	0
	968	96.9	4.68154E-001	5.43615E-004	0.00000E+000	4.68001E-001	0.00000E+000	9	...........	0
	979	98	4.79165E-001	6.06907E-004	0.00000E+000	4.79002E-001	0.00000E+000	9	...........	0
	990	99.1	4.90076E-001	6.76925E-004	0.00000E+000	4.90002E-001	0.00000E+000	9	...........	0
	1001	100.2	5.01187E-001	6.33942E-004	0.00000E+000	5.01002E-001	0.00000E+000	9	...........	0
	1012	101.3	5.12198E-001	6.98267E-004	0.00000E+000	5.12003E-001	0.00000E+000	9	...........	0
	1023	102.4	5.23209E-001	7.63956E-004	0.00000E+000	5.23003E-001	0.00000E+000	9	...........	0
	1034	103.5	5.34120E-001	8.24419E-004	0.00000E+000	5.34004E-001	0.00000E+000	9	...........	0
	1045	104.6	5.45331E-001	8.77956E-004	0.00000E+000	5.45004E-001	0.00000E+000	9	...........	0
	1056	105.7	5.56242E-001	1.06412E-003	0.00000E+000	5.56005E-001	0.00000E+000	10	...........	0
	1067	106.8	5.67253E-001	1.13083E-003	0.00000E+000	5.67005E-001	0.00000E+000	10	...........	0
	1078	107.9	5.78264E-001	1.23105E-003	0.00000E+000	5.78006E-001	0.00000E+000	10	...........	0
	1089	109	5.89275E-001	1.33558E-003	0.00000E+000	5.89006E-001	0.00000E+000	10	...........	0
	1100	110.1	6.00286E-001	1.45406E-003	0.00000E+000	6.00006E-001	0.00000E+000	10	...........	0

File: ZFO_h200_dark_reator2.DTA
EXPLAIN
TAG	LSV
TITLE	LABEL	Linear Sweep Voltammetry	Test &Identifier
DATE	LABEL	7/5/2024	Date
TIME	LABEL	18:04:36	Time
NOTES	NOTES	1	&Notes...

PSTAT	PSTAT	L3FNano	Potentiostat
VINIT	POTEN	-5.00000E-001	F	&Initial E (V)
VFINAL	POTEN	6.00000E-001	F	&Final E (V)
SCANRATE	QUANT	9.99998E+000	&Scan Rate (mV/s)
STEPSIZE	QUANT	1.00000E+000	St&ep Size (mV)
IMODE	SELECTOR	0	I/E Range &Mode
IRANGE	QUANT	1.00000E+001	&Max Current (mA)
AREA	QUANT	1.00000E+000	Electrode &Area (cm^2)
ELECTRODETYPE	SELECTOR	0	Electrode Type
STRIPPING	TOGGLE	F	Used for Stripping
POLARITY	TOGGLE	F	Signal Polarity
CONDIT	TWOPARAM	F	1.50000E+001	0.00000E+000	Conditionin&g	Time(s)	E(V)
DELAY	TWOPARAM	F	3.00000E+001	0.00000E+000	Init. De&lay	Time(s)	Stab.(mV/s)
EQDELAY	QUANT	5.00000E+000	Equil. &Time (s)
IRCOMP	SELECTOR	0	IRCom&p
PFCOR	QUANT	5.00000E+001	PF Corr. (ohm)
SAMPLINGMODE	SELECTOR	0	Sampling &Mode
EOC	QUANT	0	Open Circuit (V)
PSTATMODEL	IQUANT	48	Pstat Model
PSTATSECTION	LABEL	IFC1000-07082	Pstat Section
PSTATSERIALNO	LABEL	07082	Pstat Serial Number
CTRLMODE	IQUANT	1	Control Mode
IESTAB	IQUANT	2	I/E Stability
CASPEED	IQUANT	2	Control Amp Speed
CONVENTION	IQUANT	1	Current Convention
ICHRANGE	IQUANT	2	Ich Range
ICHRANGEMODE	TOGGLE	F	Ich Auto Range
ICHOFFSETENABLE	TOGGLE	F	Ich Offset Enable
ICHOFFSET	QUANT	0	Ich Offset (V)
ICHFILTER	IQUANT	3	Ich Filter
VCHRANGE	IQUANT	2	Vch Range
VCHRANGEMODE	TOGGLE	T	Vch Auto Range
VCHOFFSETENABLE	TOGGLE	F	Vch Offset Enable
VCHOFFSET	QUANT	0	Vch Offset (V)
VCHFILTER	IQUANT	3	Vch Filter
IERANGELOWERLIMIT	IQUANT	4	I/E Range Lower Limit
IERANGEMODE	TOGGLE	T	I/E AutoRange
IERANGE	IQUANT	11	I/E Range
ACHSELECT	IQUANT	4	Ach Select
CABLEID	IQUANT	14	Cable ID
DCCALDATE	LABEL	7/3/2024	DC Calibration Date
ACCALDATE	LABEL	7/3/2024	AC Calibration Date
FRAMEWORKVERSION	QUANT	6.24	Framework Version
INSTRUMENTVERSION	LABEL	3.28	Instrument Version
CURVE	TABLE	1101
	Pt	T	Vf	Im	Vu	Sig	Ach	IERange	Over	Cycle
	#	s	V vs. Ref.	A	V	V	V	#	bits	#
	0	0.1	-5.00110E-001	-4.71743E-006	0.00000E+000	-4.99988E-001	0.00000E+000	11	...........	0
	11	1.2	-4.88999E-001	-6.78934E-006	0.00000E+000	-4.88988E-001	0.00000E+000	7	...........	0
	22	2.3	-4.78188E-001	-5.30660E-006	0.00000E+000	-4.77988E-001	0.00000E+000	7	...........	0
	33	3.4	-4.66977E-001	-4.08960E-006	0.00000E+000	-4.66987E-001	0.00000E+000	7	...........	0
	44	4.5	-4.56066E-001	-3.24136E-006	0.00000E+000	-4.55987E-001	0.00000E+000	7	...........	0
	55	5.6	-4.44955E-001	-2.64787E-006	0.00000E+000	-4.44986E-001	0.00000E+000	7	...........	0
	66	6.7	-4.34044E-001	-2.00702E-006	0.00000E+000	-4.33986E-001	0.00000E+000	7	...........	0
	77	7.8	-4.23133E-001	-1.46754E-006	0.00000E+000	-4.22985E-001	0.00000E+000	7	...........	0
	88	8.9	-4.12122E-001	-1.01208E-006	0.00000E+000	-4.11985E-001	0.00000E+000	7	...........	0
	99	10	-4.01011E-001	-7.10001E-007	0.00000E+000	-4.00984E-001	0.00000E+000	7	...........	0
	110	11.1	-3.90000E-001	-4.83939E-007	0.00000E+000	-3.89984E-001	0.00000E+000	7	...........	0
	121	12.2	-3.79089E-001	-4.91528E-008	0.00000E+000	-3.78984E-001	0.00000E+000	7	...........	0
	132	13.3	-3.68078E-001	9.05523E-008	0.00000E+000	-3.67983E-001	0.00000E+000	7	...........	0
	143	14.4	-3.57067E-001	8.62177E-008	0.00000E+000	-3.56983E-001	0.00000E+000	7	...........	0
	154	15.5	-3.46056E-001	2.00916E-007	0.00000E+000	-3.45982E-001	0.00000E+000	7	...........	0
	165	16.6	-3.35045E-001	2.38926E-007	0.00000E+000	-3.34982E-001	0.00000E+000	7	...........	0
	176	17.7	-3.24034E-001	3.01610E-007	0.00000E+000	-3.23981E-001	0.00000E+000	7	...........	0
	187	18.8	-3.13023E-001	4.74991E-007	0.00000E+000	-3.12981E-001	0.00000E+000	7	...........	0
	198	19.9	-3.02113E-001	4.83994E-007	0.00000E+000	-3.01980E-001	0.00000E+000	7	...........	0
	209	21	-2.91102E-001	5.88689E-007	0.00000E+000	-2.90980E-001	0.00000E+000	7	...........	0
	220	22.1	-2.79991E-001	6.24699E-007	0.00000E+000	-2.79979E-001	0.00000E+000	7	...........	0
	231	23.2	-2.68980E-001	6.62709E-007	0.00000E+000	-2.68979E-001	0.00000E+000	7	...........	0
	242	24.3	-2.58069E-001	6.87383E-007	0.00000E+000	-2.57979E-001	0.00000E+000	7	...........	0
	253	25.4	-2.46958E-001	6.94051E-007	0.00000E+000	-2.46978E-001	0.00000E+000	7	...........	0
	264	26.5	-2.35937E-001	7.24726E-007	0.00000E+000	-2.35978E-001	0.00000E+000	7	...........	0
	275	27.6	-2.24956E-001	8.82436E-007	0.00000E+000	-2.24977E-001	0.00000E+000	7	...........	0
	286	28.7	-2.13925E-001	8.63098E-007	0.00000E+000	-2.13977E-001	0.00000E+000	7	...........	0
	297	29.8	-2.02954E-001	9.25782E-007	0.00000E+000	-2.02976E-001	0.00000E+000	7	...........	0
	308	30.9	-1.91903E-001	1.06549E-006	0.00000E+000	-1.91976E-001	0.00000E+000	7	...........	0
	319	32	-1.80912E-001	1.02881E-006	0.00000E+000	-1.80975E-001	0.00000E+000	7	...........	0
	330	33.1	-1.69902E-001	9.91133E-007	0.00000E+000	-1.69975E-001	0.00000E+000	7	...........	0
	341	34.2	-1.59001E-001	1.04615E-006	0.00000E+000	-1.59025E-001	0.00000E+000	7	...........	0
	352	35.3	-1.48010E-001	1.06149E-006	0.00000E+000	-1.48024E-001	0.00000E+000	7	...........	0
	363	36.4	-1.37009E-001	1.15018E-006	0.00000E+000	-1.37024E-001	0.00000E+000	7	...........	0
	374	37.5	-1.26028E-001	1.19619E-006	0.00000E+000	-1.26023E-001	0.00000E+000	7	...........	0
	385	38.6	-1.15047E-001	1.11750E-006	0.00000E+000	-1.15023E-001	0.00000E+000	7	...........	0
	396	39.7	-1.04016E-001	1.18585E-006	0.00000E+000	-1.04022E-001	0.00000E+000	7	...........	0
	407	40.8	-9.30050E-002	1.18385E-006	0.00000E+000	-9.30219E-002	0.00000E+000	7	...........	0
	418	41.9	-8.20340E-002	1.30489E-006	0.00000E+000	-8.20214E-002	0.00000E+000	7	...........	0
	429	43	-7.10031E-002	1.33023E-006	0.00000E+000	-7.10210E-002	0.00000E+000	7	...........	0
	440	44.1	-6.00121E-002	1.27121E-006	0.00000E+000	-6.00205E-002	0.00000E+000	7	...........	0
	451	45.2	-4.90012E-002	1.19286E-006	0.00000E+000	-4.90201E-002	0.00000E+000	7	...........	0
	462	46.3	-3.80302E-002	1.15518E-006	0.00000E+000	-3.80196E-002	0.00000E+000	7	...........	0
	473	47.4	-2.70793E-002	1.16451E-006	0.00000E+000	-2.70192E-002	0.00000E+000	7	...........	0
	484	48.5	-1.59801E-002	1.26387E-006	0.00000E+000	-1.60187E-002	0.00000E+000	7	...........	0
	495	49.6	-5.01514E-003	1.32889E-006	0.00000E+000	-5.01826E-003	0.00000E+000	7	...........	0
	506	50.7	6.00883E-003	1.37791E-006	0.00000E+000	5.98219E-003	0.00000E+000	7	...........	0
	517	51.8	1.69858E-002	1.40225E-006	0.00000E+000	1.69826E-002	0.00000E+000	7	...........	0
	528	52.9	2.79354E-002	1.20553E-006	0.00000E+000	2.79831E-002	0.00000E+000	7	...........	0
	539	54	3.89564E-002	1.16685E-006	0.00000E+000	3.89835E-002	0.00000E+000	7	...........	0
	550	55.1	4.99573E-002	1.12750E-006	0.00000E+000	4.99840E-002	0.00000E+000	7	...........	0
	561	56.2	6.09483E-002	1.32789E-006	0.00000E+000	6.09844E-002	0.00000E+000	7	...........	0
	572	57.3	7.19993E-002	1.36590E-006	0.00000E+000	7.19849E-002	0.00000E+000	7	...........	0
	583	58.4	8.30102E-002	1.02014E-006	0.00000E+000	8.29853E-002	0.00000E+000	7	...........	0
	594	59.5	9.39812E-002	8.83437E-007	0.00000E+000	9.39858E-002	0.00000E+000	7	...........	0
	605	60.6	1.04952E-001	1.13617E-006	0.00000E+000	1.04986E-001	0.00000E+000	7	...........	0
	616	61.7	1.15943E-001	1.01014E-006	0.00000E+000	1.15987E-001	0.00000E+000	7	...........	0
	627	62.8	1.26954E-001	1.36090E-006	0.00000E+000	1.26987E-001	0.00000E+000	7	...........	0
[...]
	671	67.2	1.70898E-001	1.48227E-006	0.00000E+000	1.70989E-001	0.00000E+000	7	...........	0
	682	68.3	1.81949E-001	1.62831E-006	0.00000E+000	1.81989E-001	0.00000E+000	7	...........	0
	693	69.4	1.92920E-001	1.72667E-006	0.00000E+000	1.92990E-001	0.00000E+000	7	...........	0
	704	70.5	2.03941E-001	1.90572E-006	0.00000E+000	2.03990E-001	0.00000E+000	7	...........	0
	715	71.6	2.14922E-001	1.99041E-006	0.00000E+000	2.14991E-001	0.00000E+000	7	...........	0
	726	72.7	2.25943E-001	1.99241E-006	0.00000E+000	2.25991E-001	0.00000E+000	7	...........	0
	737	73.8	2.36943E-001	2.09110E-006	0.00000E+000	2.36992E-001	0.00000E+000	7	...........	0
	748	74.9	2.47954E-001	2.08677E-006	0.00000E+000	2.47992E-001	0.00000E+000	7	...........	0
	759	76	2.58865E-001	1.95940E-006	0.00000E+000	2.58993E-001	0.00000E+000	7	...........	0
	770	77.1	2.70057E-001	2.10811E-006	0.00000E+000	2.69993E-001	0.00000E+000	7	...........	0
	781	78.2	2.80968E-001	2.26415E-006	0.00000E+000	2.80993E-001	0.00000E+000	7	...........	0
	792	79.3	2.92079E-001	2.60658E-006	0.00000E+000	2.91994E-001	0.00000E+000	7	...........	0
	803	80.4	3.03090E-001	2.64825E-006	0.00000E+000	3.02994E-001	0.00000E+000	7	...........	0
	814	81.5	3.14001E-001	2.51055E-006	0.00000E+000	3.13995E-001	0.00000E+000	7	...........	0
	825	82.6	3.25012E-001	2.62658E-006	0.00000E+000	3.24995E-001	0.00000E+000	7	...........	0
	836	83.7	3.36023E-001	2.54956E-006	0.00000E+000	3.35996E-001	0.00000E+000	7	...........	0
	847	84.8	3.47034E-001	2.51288E-006	0.00000E+000	3.46996E-001	0.00000E+000	7	...........	0
	858	85.9	3.58044E-001	2.65592E-006	0.00000E+000	3.57997E-001	0.00000E+000	7	...........	0
	869	87	3.69055E-001	2.66826E-006	0.00000E+000	3.68997E-001	0.00000E+000	7	...........	0
	880	88.1	3.80167E-001	2.49155E-006	0.00000E+000	3.79997E-001	0.00000E+000	7	...........	0
	891	89.2	3.91077E-001	2.59191E-006	0.00000E+000	3.90998E-001	0.00000E+000	7	...........	0
	902	90.3	4.01988E-001	2.64792E-006	0.00000E+000	4.01998E-001	0.00000E+000	7	...........	0
	913	91.4	4.13099E-001	2.76762E-006	0.00000E+000	4.12999E-001	0.00000E+000	7	...........	0
	924	92.5	4.24110E-001	2.90866E-006	0.00000E+000	4.23999E-001	0.00000E+000	7	...........	0
	935	93.6	4.35121E-001	2.75462E-006	0.00000E+000	4.35000E-001	0.00000E+000	7	...........	0
	946	94.7	4.46232E-001	2.60291E-006	0.00000E+000	4.46000E-001	0.00000E+000	7	...........	0
	957	95.8	4.57143E-001	2.55090E-006	0.00000E+000	4.57001E-001	0.00000E+000	7	...........	0
	968	96.9	4.68054E-001	2.87432E-006	0.00000E+000	4.68001E-001	0.00000E+000	7	...........	0
	979	98	4.79065E-001	2.95767E-006	0.00000E+000	4.79002E-001	0.00000E+000	7	...........	0
	990	99.1	4.90076E-001	3.00669E-006	0.00000E+000	4.90002E-001	0.00000E+000	7	...........	0
	1001	100.2	5.00987E-001	2.96534E-006	0.00000E+000	5.01002E-001	0.00000E+000	7	...........	0
	1012	101.3	5.11998E-001	3.16840E-006	0.00000E+000	5.12003E-001	0.00000E+000	7	...........	0
	1023	102.4	5.23109E-001	3.43914E-006	0.00000E+000	5.23003E-001	0.00000E+000	7	...........	0
	1034	103.5	5.34020E-001	3.53983E-006	0.00000E+000	5.34004E-001	0.00000E+000	7	...........	0
	1045	104.6	5.45131E-001	3.64786E-006	0.00000E+000	5.45004E-001	0.00000E+000	7	...........	0
	1056	105.7	5.56142E-001	3.69821E-006	0.00000E+000	5.56005E-001	0.00000E+000	7	...........	0
	1067	106.8	5.67153E-001	3.78990E-006	0.00000E+000	5.67005E-001	0.00000E+000	7	...........	0
	1078	107.9	5.78164E-001	4.00229E-006	0.00000E+000	5.78006E-001	0.00000E+000	7	...........	0
	1089	109	5.89074E-001	4.24269E-006	0.00000E+000	5.89006E-001	0.00000E+000	7	...........	0
	1100	110.1	6.00085E-001	4.57378E-006	0.00000E+000	6.00006E-001	0.00000E+000	7	...........	0