Folder: DataAnalysis/LSV ZFO (part 8)

File: ZFO_h300_chop_reator.DTA
EXPLAIN
TAG	LSV
TITLE	LABEL	Linear Sweep Voltammetry	Test &Identifier
DATE	LABEL	7/5/2024	Date
TIME	LABEL	17:50:23	Time
NOTES	NOTES	1	&Notes...

PSTAT	PSTAT	L3FNano	Potentiostat
VINIT	POTEN	-5.00000E-001	F	&Initial E (V)
VFINAL	POTEN	6.00000E-001	F	&Final E (V)
SCANRATE	QUANT	9.99998E+000	&Scan Rate (mV/s)
STEPSIZE	QUANT	1.00000E+000	St&ep Size (mV)
IMODE	SELECTOR	0	I/E Range &Mode
IRANGE	QUANT	1.00000E+001	&Max Current (mA)
AREA	QUANT	1.00000E+000	Electrode &Area (cm^2)
ELECTRODETYPE	SELECTOR	0	Electrode Type
STRIPPING	TOGGLE	F	Used for Stripping
POLARITY	TOGGLE	F	Signal Polarity
CONDIT	TWOPARAM	F	1.50000E+001	0.00000E+000	Conditionin&g	Time(s)	E(V)
DELAY	TWOPARAM	F	3.00000E+001	0.00000E+000	Init. De&lay	Time(s)	Stab.(mV/s)
EQDELAY	QUANT	5.00000E+000	Equil. &Time (s)
IRCOMP	SELECTOR	0	IRCom&p
PFCOR	QUANT	5.00000E+001	PF Corr. (ohm)
SAMPLINGMODE	SELECTOR	0	Sampling &Mode
EOC	QUANT	0	Open Circuit (V)
PSTATMODEL	IQUANT	48	Pstat Model
PSTATSECTION	LABEL	IFC1000-07082	Pstat Section
PSTATSERIALNO	LABEL	07082	Pstat Serial Number
CTRLMODE	IQUANT	1	Control Mode
IESTAB	IQUANT	2	I/E Stability
CASPEED	IQUANT	2	Control Amp Speed
CONVENTION	IQUANT	1	Current Convention
ICHRANGE	IQUANT	2	Ich Range
ICHRANGEMODE	TOGGLE	F	Ich Auto Range
ICHOFFSETENABLE	TOGGLE	F	Ich Offset Enable
ICHOFFSET	QUANT	0	Ich Offset (V)
ICHFILTER	IQUANT	3	Ich Filter
VCHRANGE	IQUANT	2	Vch Range
VCHRANGEMODE	TOGGLE	T	Vch Auto Range
VCHOFFSETENABLE	TOGGLE	F	Vch Offset Enable
VCHOFFSET	QUANT	0	Vch Offset (V)
VCHFILTER	IQUANT	3	Vch Filter
IERANGELOWERLIMIT	IQUANT	4	I/E Range Lower Limit
IERANGEMODE	TOGGLE	T	I/E AutoRange
IERANGE	IQUANT	11	I/E Range
ACHSELECT	IQUANT	4	Ach Select
CABLEID	IQUANT	14	Cable ID
DCCALDATE	LABEL	7/3/2024	DC Calibration Date
ACCALDATE	LABEL	7/3/2024	AC Calibration Date
FRAMEWORKVERSION	QUANT	6.24	Framework Version
INSTRUMENTVERSION	LABEL	3.28	Instrument Version
CURVE	TABLE	1101
	Pt	T	Vf	Im	Vu	Sig	Ach	IERange	Over	Cycle
	#	s	V vs. Ref.	A	V	V	V	#	bits	#
	0	0.1	-5.00010E-001	-1.46991E-005	0.00000E+000	-4.99988E-001	0.00000E+000	11	...........	0
	11	1.2	-4.89099E-001	-1.24589E-005	0.00000E+000	-4.88988E-001	0.00000E+000	8	...........	0
	22	2.3	-4.77988E-001	-9.87542E-006	0.00000E+000	-4.77988E-001	0.00000E+000	8	...........	0
	33	3.4	-4.67077E-001	-8.04002E-006	0.00000E+000	-4.66987E-001	0.00000E+000	7	...........	0
	44	4.5	-4.55966E-001	-6.43757E-006	0.00000E+000	-4.55987E-001	0.00000E+000	7	...........	0
	55	5.6	-4.45055E-001	-4.80179E-006	0.00000E+000	-4.44986E-001	0.00000E+000	7	...........	0
	66	6.7	-4.33844E-001	-3.63114E-006	0.00000E+000	-4.33986E-001	0.00000E+000	7	...........	0
	77	7.8	-4.23033E-001	-2.50116E-006	0.00000E+000	-4.22985E-001	0.00000E+000	7	...........	0
	88	8.9	-4.12022E-001	-1.97835E-006	0.00000E+000	-4.11985E-001	0.00000E+000	7	...........	0
	99	10	-4.01011E-001	-1.87966E-006	0.00000E+000	-4.00984E-001	0.00000E+000	7	...........	0
	110	11.1	-3.90000E-001	-9.92079E-007	0.00000E+000	-3.89984E-001	0.00000E+000	7	...........	0
	121	12.2	-3.78989E-001	-4.19588E-007	0.00000E+000	-3.78984E-001	0.00000E+000	7	...........	0
	132	13.3	-3.67978E-001	-2.48874E-007	0.00000E+000	-3.67983E-001	0.00000E+000	7	...........	0
	143	14.4	-3.56967E-001	-7.54933E-008	0.00000E+000	-3.56983E-001	0.00000E+000	7	...........	0
	154	15.5	-3.46056E-001	1.09650E-006	0.00000E+000	-3.45982E-001	0.00000E+000	7	...........	0
	165	16.6	-3.34945E-001	9.12111E-007	0.00000E+000	-3.34982E-001	0.00000E+000	7	...........	0
	176	17.7	-3.24034E-001	9.48455E-007	0.00000E+000	-3.23981E-001	0.00000E+000	7	...........	0
	187	18.8	-3.13023E-001	1.05115E-006	0.00000E+000	-3.12981E-001	0.00000E+000	7	...........	0
	198	19.9	-3.02013E-001	1.08983E-006	0.00000E+000	-3.01980E-001	0.00000E+000	7	...........	0
	209	21	-2.91002E-001	1.36565E-007	0.00000E+000	-2.90980E-001	0.00000E+000	7	...........	0
	220	22.1	-2.80091E-001	2.85939E-007	0.00000E+000	-2.79979E-001	0.00000E+000	7	...........	0
	231	23.2	-2.69080E-001	2.66267E-007	0.00000E+000	-2.68979E-001	0.00000E+000	7	...........	0
	242	24.3	-2.57969E-001	3.15948E-007	0.00000E+000	-2.57979E-001	0.00000E+000	7	...........	0
	253	25.4	-2.47058E-001	3.87826E-006	0.00000E+000	-2.46978E-001	0.00000E+000	7	...........	0
	264	26.5	-2.35927E-001	2.12311E-006	0.00000E+000	-2.35978E-001	0.00000E+000	7	...........	0
	275	27.6	-2.24896E-001	1.85604E-006	0.00000E+000	-2.24977E-001	0.00000E+000	7	...........	0
	286	28.7	-2.13945E-001	1.79269E-006	0.00000E+000	-2.13977E-001	0.00000E+000	7	...........	0
	297	29.8	-2.02944E-001	2.22014E-006	0.00000E+000	-2.02976E-001	0.00000E+000	7	...........	0
	308	30.9	-1.91943E-001	-1.11503E-007	0.00000E+000	-1.91976E-001	0.00000E+000	7	...........	0
	319	32	-1.80963E-001	8.72180E-008	0.00000E+000	-1.80975E-001	0.00000E+000	7	...........	0
	330	33.1	-1.69972E-001	1.43233E-007	0.00000E+000	-1.69975E-001	0.00000E+000	7	...........	0
	341	34.2	-1.59031E-001	1.23895E-007	0.00000E+000	-1.59025E-001	0.00000E+000	7	...........	0
	352	35.3	-1.48040E-001	6.30826E-006	0.00000E+000	-1.48024E-001	0.00000E+000	7	...........	0
	363	36.4	-1.37069E-001	3.83491E-006	0.00000E+000	-1.37024E-001	0.00000E+000	7	...........	0
	374	37.5	-1.26038E-001	3.97462E-006	0.00000E+000	-1.26023E-001	0.00000E+000	7	...........	0
	385	38.6	-1.15027E-001	3.80324E-006	0.00000E+000	-1.15023E-001	0.00000E+000	7	...........	0
	396	39.7	-1.04016E-001	4.28004E-006	0.00000E+000	-1.04022E-001	0.00000E+000	7	...........	0
	407	40.8	-9.30550E-002	-2.54543E-007	0.00000E+000	-9.30219E-002	0.00000E+000	7	...........	0
	418	41.9	-8.20541E-002	3.75377E-008	0.00000E+000	-8.20214E-002	0.00000E+000	7	...........	0
	429	43	-7.10731E-002	7.72153E-008	0.00000E+000	-7.10210E-002	0.00000E+000	7	...........	0
	440	44.1	-6.00722E-002	7.32142E-008	0.00000E+000	-6.00205E-002	0.00000E+000	7	...........	0
	451	45.2	-4.89211E-002	1.08919E-005	0.00000E+000	-4.90201E-002	0.00000E+000	7	....ih.....	0
	462	46.3	-3.80302E-002	7.32421E-006	0.00000E+000	-3.80196E-002	0.00000E+000	7	...........	0
	473	47.4	-2.70693E-002	6.75138E-006	0.00000E+000	-2.70192E-002	0.00000E+000	7	...........	0
	484	48.5	-1.60341E-002	6.73771E-006	0.00000E+000	-1.60187E-002	0.00000E+000	7	...........	0
	495	49.6	-5.06319E-003	6.89309E-006	0.00000E+000	-5.01826E-003	0.00000E+000	7	...........	0
	506	50.7	5.93476E-003	-7.48011E-007	0.00000E+000	5.98219E-003	0.00000E+000	7	...........	0
	517	51.8	1.69597E-002	-4.14920E-007	0.00000E+000	1.69826E-002	0.00000E+000	7	...........	0
	528	52.9	2.79454E-002	-1.50847E-007	0.00000E+000	2.79831E-002	0.00000E+000	7	...........	0
	539	54	3.89864E-002	2.18667E-008	0.00000E+000	3.89835E-002	0.00000E+000	7	...........	0
	550	55.1	4.99673E-002	2.13586E-007	0.00000E+000	4.99840E-002	0.00000E+000	7	...........	0
	561	56.2	6.09683E-002	1.09227E-005	0.00000E+000	6.09844E-002	0.00000E+000	8	...........	0
	572	57.3	7.19692E-002	1.02360E-005	0.00000E+000	7.19849E-002	0.00000E+000	8	...........	0
	583	58.4	8.29602E-002	1.06427E-005	0.00000E+000	8.29853E-002	0.00000E+000	8	...........	0
	594	59.5	9.39511E-002	1.06794E-005	0.00000E+000	9.39858E-002	0.00000E+000	8	...........	0
	605	60.6	1.04952E-001	-6.56653E-007	0.00000E+000	1.04986E-001	0.00000E+000	7	...........	0
	616	61.7	1.15953E-001	-1.69853E-007	0.00000E+000	1.15987E-001	0.00000E+000	7	...........	0
	627	62.8	1.26984E-001	-1.38097E-008	0.00000E+000	1.26987E-001	0.00000E+000	7	...........	0
[...]
	671	67.2	1.70888E-001	1.44863E-005	0.00000E+000	1.70989E-001	0.00000E+000	8	...........	0
	682	68.3	1.81949E-001	1.42196E-005	0.00000E+000	1.81989E-001	0.00000E+000	8	...........	0
	693	69.4	1.92940E-001	1.38696E-005	0.00000E+000	1.92990E-001	0.00000E+000	8	...........	0
	704	70.5	2.03931E-001	-7.06333E-007	0.00000E+000	2.03990E-001	0.00000E+000	7	...........	0
	715	71.6	2.14942E-001	1.51236E-007	0.00000E+000	2.14991E-001	0.00000E+000	7	...........	0
	726	72.7	2.25943E-001	7.62150E-008	0.00000E+000	2.25991E-001	0.00000E+000	7	...........	0
	737	73.8	2.36913E-001	1.99249E-007	0.00000E+000	2.36992E-001	0.00000E+000	7	...........	0
	748	74.9	2.47924E-001	2.53264E-007	0.00000E+000	2.47992E-001	0.00000E+000	7	...........	0
	759	76	2.58895E-001	1.86132E-005	0.00000E+000	2.58993E-001	0.00000E+000	8	...........	0
	770	77.1	2.70057E-001	1.88233E-005	0.00000E+000	2.69993E-001	0.00000E+000	8	...........	0
	781	78.2	2.81068E-001	1.82765E-005	0.00000E+000	2.80993E-001	0.00000E+000	8	...........	0
	792	79.3	2.92079E-001	1.87032E-005	0.00000E+000	2.91994E-001	0.00000E+000	8	...........	0
	803	80.4	3.03090E-001	-5.80966E-007	0.00000E+000	3.02994E-001	0.00000E+000	7	...........	0
	814	81.5	3.14101E-001	-4.22589E-007	0.00000E+000	3.13995E-001	0.00000E+000	7	...........	0
	825	82.6	3.25112E-001	9.35531E-008	0.00000E+000	3.24995E-001	0.00000E+000	7	...........	0
	836	83.7	3.36023E-001	1.73909E-007	0.00000E+000	3.35996E-001	0.00000E+000	7	...........	0
	847	84.8	3.47134E-001	1.52569E-007	0.00000E+000	3.46996E-001	0.00000E+000	7	...........	0
	858	85.9	3.58145E-001	2.41603E-005	0.00000E+000	3.57997E-001	0.00000E+000	8	...........	0
	869	87	3.69156E-001	2.25235E-005	0.00000E+000	3.68997E-001	0.00000E+000	8	...........	0
	880	88.1	3.80066E-001	2.33269E-005	0.00000E+000	3.79997E-001	0.00000E+000	8	...........	0
	891	89.2	3.90977E-001	2.43036E-005	0.00000E+000	3.90998E-001	0.00000E+000	8	...........	0
	902	90.3	4.02088E-001	2.58932E-007	0.00000E+000	4.01998E-001	0.00000E+000	7	...........	0
	913	91.4	4.13099E-001	2.34925E-007	0.00000E+000	4.12999E-001	0.00000E+000	7	...........	0
	924	92.5	4.24110E-001	2.36926E-007	0.00000E+000	4.23999E-001	0.00000E+000	7	...........	0
	935	93.6	4.35121E-001	3.07612E-007	0.00000E+000	4.35000E-001	0.00000E+000	7	...........	0
	946	94.7	4.46132E-001	3.78298E-007	0.00000E+000	4.46000E-001	0.00000E+000	7	...........	0
	957	95.8	4.57043E-001	2.84839E-005	0.00000E+000	4.57001E-001	0.00000E+000	8	...........	0
	968	96.9	4.68054E-001	2.66905E-005	0.00000E+000	4.68001E-001	0.00000E+000	8	...........	0
	979	98	4.79165E-001	2.73072E-005	0.00000E+000	4.79002E-001	0.00000E+000	8	...........	0
	990	99.1	4.90076E-001	2.84039E-005	0.00000E+000	4.90002E-001	0.00000E+000	8	...........	0
	1001	100.2	5.01087E-001	9.93467E-007	0.00000E+000	5.01002E-001	0.00000E+000	7	...........	0
	1012	101.3	5.12098E-001	5.36341E-007	0.00000E+000	5.12003E-001	0.00000E+000	7	...........	0
	1023	102.4	5.23109E-001	6.03693E-007	0.00000E+000	5.23003E-001	0.00000E+000	7	...........	0
	1034	103.5	5.34220E-001	8.17419E-007	0.00000E+000	5.34004E-001	0.00000E+000	7	...........	0
	1045	104.6	5.45131E-001	9.58791E-007	0.00000E+000	5.45004E-001	0.00000E+000	7	...........	0
	1056	105.7	5.56142E-001	3.27776E-005	0.00000E+000	5.56005E-001	0.00000E+000	8	...........	0
	1067	106.8	5.67253E-001	3.15775E-005	0.00000E+000	5.67005E-001	0.00000E+000	8	...........	0
	1078	107.9	5.78164E-001	3.29176E-005	0.00000E+000	5.78006E-001	0.00000E+000	8	...........	0
	1089	109	5.89175E-001	3.24575E-005	0.00000E+000	5.89006E-001	0.00000E+000	8	...........	0
	1100	110.1	6.00186E-001	4.37225E-006	0.00000E+000	6.00006E-001	0.00000E+000	8	...........	0

File: ZFO_h300_dark.DTA
EXPLAIN
TAG	LSV
TITLE	LABEL	Linear Sweep Voltammetry	Test &Identifier
DATE	LABEL	7/5/2024	Date
TIME	LABEL	16:37:16	Time
NOTES	NOTES	1	&Notes...

PSTAT	PSTAT	L3FNano	Potentiostat
VINIT	POTEN	-5.00000E-001	F	&Initial E (V)
VFINAL	POTEN	6.00000E-001	F	&Final E (V)
SCANRATE	QUANT	9.99998E+000	&Scan Rate (mV/s)
STEPSIZE	QUANT	1.00000E+000	St&ep Size (mV)
IMODE	SELECTOR	0	I/E Range &Mode
IRANGE	QUANT	1.00000E+001	&Max Current (mA)
AREA	QUANT	1.00000E+000	Electrode &Area (cm^2)
ELECTRODETYPE	SELECTOR	0	Electrode Type
STRIPPING	TOGGLE	F	Used for Stripping
POLARITY	TOGGLE	F	Signal Polarity
CONDIT	TWOPARAM	F	1.50000E+001	0.00000E+000	Conditionin&g	Time(s)	E(V)
DELAY	TWOPARAM	F	3.00000E+001	0.00000E+000	Init. De&lay	Time(s)	Stab.(mV/s)
EQDELAY	QUANT	5.00000E+000	Equil. &Time (s)
IRCOMP	SELECTOR	0	IRCom&p
PFCOR	QUANT	5.00000E+001	PF Corr. (ohm)
SAMPLINGMODE	SELECTOR	0	Sampling &Mode
EOC	QUANT	0	Open Circuit (V)
PSTATMODEL	IQUANT	48	Pstat Model
PSTATSECTION	LABEL	IFC1000-07082	Pstat Section
PSTATSERIALNO	LABEL	07082	Pstat Serial Number
CTRLMODE	IQUANT	1	Control Mode
IESTAB	IQUANT	2	I/E Stability
CASPEED	IQUANT	2	Control Amp Speed
CONVENTION	IQUANT	1	Current Convention
ICHRANGE	IQUANT	2	Ich Range
ICHRANGEMODE	TOGGLE	F	Ich Auto Range
ICHOFFSETENABLE	TOGGLE	F	Ich Offset Enable
ICHOFFSET	QUANT	0	Ich Offset (V)
ICHFILTER	IQUANT	3	Ich Filter
VCHRANGE	IQUANT	2	Vch Range
VCHRANGEMODE	TOGGLE	T	Vch Auto Range
VCHOFFSETENABLE	TOGGLE	F	Vch Offset Enable
VCHOFFSET	QUANT	0	Vch Offset (V)
VCHFILTER	IQUANT	3	Vch Filter
IERANGELOWERLIMIT	IQUANT	4	I/E Range Lower Limit
IERANGEMODE	TOGGLE	T	I/E AutoRange
IERANGE	IQUANT	11	I/E Range
ACHSELECT	IQUANT	4	Ach Select
CABLEID	IQUANT	14	Cable ID
DCCALDATE	LABEL	7/3/2024	DC Calibration Date
ACCALDATE	LABEL	7/3/2024	AC Calibration Date
FRAMEWORKVERSION	QUANT	6.24	Framework Version
INSTRUMENTVERSION	LABEL	3.28	Instrument Version
CURVE	TABLE	1101
	Pt	T	Vf	Im	Vu	Sig	Ach	IERange	Over	Cycle
	#	s	V vs. Ref.	A	V	V	V	#	bits	#
	0	0.1	-5.00110E-001	-2.13536E-005	0.00000E+000	-4.99988E-001	0.00000E+000	11	...........	0
	11	1.2	-4.89099E-001	-1.95728E-005	0.00000E+000	-4.88988E-001	0.00000E+000	8	...........	0
	22	2.3	-4.77988E-001	-1.63959E-005	0.00000E+000	-4.77988E-001	0.00000E+000	8	...........	0
	33	3.4	-4.66977E-001	-1.39024E-005	0.00000E+000	-4.66987E-001	0.00000E+000	8	...........	0
	44	4.5	-4.55966E-001	-1.18089E-005	0.00000E+000	-4.55987E-001	0.00000E+000	8	...........	0
	55	5.6	-4.45055E-001	-1.01088E-005	0.00000E+000	-4.44986E-001	0.00000E+000	8	...........	0
	66	6.7	-4.34044E-001	-8.57199E-006	0.00000E+000	-4.33986E-001	0.00000E+000	8	...........	0
	77	7.8	-4.22933E-001	-7.21979E-006	0.00000E+000	-4.22985E-001	0.00000E+000	7	...........	0
	88	8.9	-4.12022E-001	-6.12616E-006	0.00000E+000	-4.11985E-001	0.00000E+000	7	...........	0
	99	10	-4.01011E-001	-5.11421E-006	0.00000E+000	-4.00984E-001	0.00000E+000	7	...........	0
	110	11.1	-3.90000E-001	-4.24564E-006	0.00000E+000	-3.89984E-001	0.00000E+000	7	...........	0
	121	12.2	-3.78989E-001	-3.44375E-006	0.00000E+000	-3.78984E-001	0.00000E+000	7	...........	0
	132	13.3	-3.68078E-001	-2.81725E-006	0.00000E+000	-3.67983E-001	0.00000E+000	7	...........	0
	143	14.4	-3.56967E-001	-2.28843E-006	0.00000E+000	-3.56983E-001	0.00000E+000	7	...........	0
	154	15.5	-3.46056E-001	-1.81831E-006	0.00000E+000	-3.45982E-001	0.00000E+000	7	...........	0
	165	16.6	-3.35045E-001	-1.43653E-006	0.00000E+000	-3.34982E-001	0.00000E+000	7	...........	0
	176	17.7	-3.23934E-001	-1.18647E-006	0.00000E+000	-3.23981E-001	0.00000E+000	7	...........	0
	187	18.8	-3.13023E-001	-8.62710E-007	0.00000E+000	-3.12981E-001	0.00000E+000	7	...........	0
	198	19.9	-3.02013E-001	-6.45317E-007	0.00000E+000	-3.01980E-001	0.00000E+000	7	...........	0
	209	21	-2.91002E-001	-4.29257E-007	0.00000E+000	-2.90980E-001	0.00000E+000	7	...........	0
	220	22.1	-2.80091E-001	-2.21533E-007	0.00000E+000	-2.79979E-001	0.00000E+000	7	...........	0
	231	23.2	-2.68980E-001	-1.21506E-007	0.00000E+000	-2.68979E-001	0.00000E+000	7	...........	0
	242	24.3	-2.57969E-001	1.38645E-008	0.00000E+000	-2.57979E-001	0.00000E+000	7	...........	0
	253	25.4	-2.46958E-001	5.98772E-008	0.00000E+000	-2.46978E-001	0.00000E+000	7	...........	0
	264	26.5	-2.35957E-001	1.57237E-007	0.00000E+000	-2.35978E-001	0.00000E+000	7	...........	0
	275	27.6	-2.24956E-001	2.47262E-007	0.00000E+000	-2.24977E-001	0.00000E+000	7	...........	0
	286	28.7	-2.13945E-001	2.97943E-007	0.00000E+000	-2.13977E-001	0.00000E+000	7	...........	0
	297	29.8	-2.02964E-001	2.80938E-007	0.00000E+000	-2.02976E-001	0.00000E+000	7	...........	0
	308	30.9	-1.91953E-001	3.08279E-007	0.00000E+000	-1.91976E-001	0.00000E+000	7	...........	0
	319	32	-1.80953E-001	3.29284E-007	0.00000E+000	-1.80975E-001	0.00000E+000	7	...........	0
	330	33.1	-1.69962E-001	3.37620E-007	0.00000E+000	-1.69975E-001	0.00000E+000	7	...........	0
	341	34.2	-1.59011E-001	3.51624E-007	0.00000E+000	-1.59025E-001	0.00000E+000	7	...........	0
	352	35.3	-1.48030E-001	3.71296E-007	0.00000E+000	-1.48024E-001	0.00000E+000	7	...........	0
	363	36.4	-1.37059E-001	3.87967E-007	0.00000E+000	-1.37024E-001	0.00000E+000	7	...........	0
	374	37.5	-1.26028E-001	4.00304E-007	0.00000E+000	-1.26023E-001	0.00000E+000	7	...........	0
	385	38.6	-1.15027E-001	4.36314E-007	0.00000E+000	-1.15023E-001	0.00000E+000	7	...........	0
	396	39.7	-1.04046E-001	4.42982E-007	0.00000E+000	-1.04022E-001	0.00000E+000	7	...........	0
	407	40.8	-9.30250E-002	4.11307E-007	0.00000E+000	-9.30219E-002	0.00000E+000	7	...........	0
	418	41.9	-8.20340E-002	4.52985E-007	0.00000E+000	-8.20214E-002	0.00000E+000	7	...........	0
	429	43	-7.10531E-002	4.73324E-007	0.00000E+000	-7.10210E-002	0.00000E+000	7	...........	0
	440	44.1	-6.00422E-002	4.62655E-007	0.00000E+000	-6.00205E-002	0.00000E+000	7	...........	0
	451	45.2	-4.90512E-002	4.82660E-007	0.00000E+000	-4.90201E-002	0.00000E+000	7	...........	0
	462	46.3	-3.80302E-002	5.66683E-007	0.00000E+000	-3.80196E-002	0.00000E+000	7	...........	0
	473	47.4	-2.70293E-002	5.96358E-007	0.00000E+000	-2.70192E-002	0.00000E+000	7	...........	0
	484	48.5	-1.60341E-002	5.65016E-007	0.00000E+000	-1.60187E-002	0.00000E+000	7	...........	0
	495	49.6	-5.03516E-003	5.72685E-007	0.00000E+000	-5.01826E-003	0.00000E+000	7	...........	0
	506	50.7	5.96879E-003	5.31340E-007	0.00000E+000	5.98219E-003	0.00000E+000	7	...........	0
	517	51.8	1.69597E-002	5.68017E-007	0.00000E+000	1.69826E-002	0.00000E+000	7	...........	0
	528	52.9	2.79955E-002	5.75019E-007	0.00000E+000	2.79831E-002	0.00000E+000	7	...........	0
	539	54	3.89964E-002	5.67350E-007	0.00000E+000	3.89835E-002	0.00000E+000	7	...........	0
	550	55.1	4.99774E-002	5.49678E-007	0.00000E+000	4.99840E-002	0.00000E+000	7	...........	0
	561	56.2	6.09783E-002	5.51012E-007	0.00000E+000	6.09844E-002	0.00000E+000	7	...........	0
	572	57.3	7.19492E-002	5.89023E-007	0.00000E+000	7.19849E-002	0.00000E+000	7	...........	0
	583	58.4	8.29602E-002	6.02026E-007	0.00000E+000	8.29853E-002	0.00000E+000	7	...........	0
	594	59.5	9.39511E-002	5.77686E-007	0.00000E+000	9.39858E-002	0.00000E+000	7	...........	0
	605	60.6	1.04972E-001	6.47705E-007	0.00000E+000	1.04986E-001	0.00000E+000	7	...........	0
	616	61.7	1.15973E-001	6.98386E-007	0.00000E+000	1.15987E-001	0.00000E+000	7	...........	0
	627	62.8	1.26984E-001	7.29394E-007	0.00000E+000	1.26987E-001	0.00000E+000	7	...........	0
[...]
	671	67.2	1.70988E-001	7.82076E-007	0.00000E+000	1.70989E-001	0.00000E+000	7	...........	0
	682	68.3	1.81969E-001	8.17752E-007	0.00000E+000	1.81989E-001	0.00000E+000	7	...........	0
	693	69.4	1.92970E-001	8.91772E-007	0.00000E+000	1.92990E-001	0.00000E+000	7	...........	0
	704	70.5	2.03951E-001	8.58763E-007	0.00000E+000	2.03990E-001	0.00000E+000	7	...........	0
	715	71.6	2.14962E-001	8.80769E-007	0.00000E+000	2.14991E-001	0.00000E+000	7	...........	0
	726	72.7	2.25953E-001	8.31423E-007	0.00000E+000	2.25991E-001	0.00000E+000	7	...........	0
	737	73.8	2.36973E-001	8.73434E-007	0.00000E+000	2.36992E-001	0.00000E+000	7	...........	0
	748	74.9	2.47964E-001	8.82436E-007	0.00000E+000	2.47992E-001	0.00000E+000	7	...........	0
	759	76	2.58925E-001	8.86771E-007	0.00000E+000	2.58993E-001	0.00000E+000	7	...........	0
	770	77.1	2.70257E-001	9.01108E-007	0.00000E+000	2.69993E-001	0.00000E+000	7	...........	0
	781	78.2	2.81168E-001	9.19113E-007	0.00000E+000	2.80993E-001	0.00000E+000	7	...........	0
	792	79.3	2.92179E-001	8.99775E-007	0.00000E+000	2.91994E-001	0.00000E+000	7	...........	0
	803	80.4	3.03090E-001	9.86465E-007	0.00000E+000	3.02994E-001	0.00000E+000	7	...........	0
	814	81.5	3.14101E-001	1.01081E-006	0.00000E+000	3.13995E-001	0.00000E+000	7	...........	0
	825	82.6	3.25212E-001	1.04515E-006	0.00000E+000	3.24995E-001	0.00000E+000	7	...........	0
	836	83.7	3.36223E-001	1.06915E-006	0.00000E+000	3.35996E-001	0.00000E+000	7	...........	0
	847	84.8	3.47234E-001	1.10416E-006	0.00000E+000	3.46996E-001	0.00000E+000	7	...........	0
	858	85.9	3.58145E-001	1.11283E-006	0.00000E+000	3.57997E-001	0.00000E+000	7	...........	0
	869	87	3.69256E-001	1.11850E-006	0.00000E+000	3.68997E-001	0.00000E+000	7	...........	0
	880	88.1	3.80167E-001	1.15384E-006	0.00000E+000	3.79997E-001	0.00000E+000	7	...........	0
	891	89.2	3.91278E-001	1.17418E-006	0.00000E+000	3.90998E-001	0.00000E+000	7	...........	0
	902	90.3	4.02188E-001	1.20286E-006	0.00000E+000	4.01998E-001	0.00000E+000	7	...........	0
	913	91.4	4.13199E-001	1.22220E-006	0.00000E+000	4.12999E-001	0.00000E+000	7	...........	0
	924	92.5	4.24210E-001	1.26788E-006	0.00000E+000	4.23999E-001	0.00000E+000	7	...........	0
	935	93.6	4.35221E-001	1.28055E-006	0.00000E+000	4.35000E-001	0.00000E+000	7	...........	0
	946	94.7	4.46232E-001	1.30189E-006	0.00000E+000	4.46000E-001	0.00000E+000	7	...........	0
	957	95.8	4.57243E-001	1.34956E-006	0.00000E+000	4.57001E-001	0.00000E+000	7	...........	0
	968	96.9	4.68354E-001	1.40625E-006	0.00000E+000	4.68001E-001	0.00000E+000	7	...........	0
	979	98	4.79265E-001	1.42325E-006	0.00000E+000	4.79002E-001	0.00000E+000	7	...........	0
	990	99.1	4.90176E-001	1.48427E-006	0.00000E+000	4.90002E-001	0.00000E+000	7	...........	0
	1001	100.2	5.01187E-001	1.48160E-006	0.00000E+000	5.01002E-001	0.00000E+000	7	...........	0
	1012	101.3	5.12298E-001	1.50394E-006	0.00000E+000	5.12003E-001	0.00000E+000	7	...........	0
	1023	102.4	5.23309E-001	1.58696E-006	0.00000E+000	5.23003E-001	0.00000E+000	7	...........	0
	1034	103.5	5.34220E-001	1.63264E-006	0.00000E+000	5.34004E-001	0.00000E+000	7	...........	0
	1045	104.6	5.45331E-001	1.71233E-006	0.00000E+000	5.45004E-001	0.00000E+000	7	...........	0
	1056	105.7	5.56142E-001	1.78535E-006	0.00000E+000	5.56005E-001	0.00000E+000	7	...........	0
	1067	106.8	5.67153E-001	1.89638E-006	0.00000E+000	5.67005E-001	0.00000E+000	7	...........	0
	1078	107.9	5.78264E-001	2.01741E-006	0.00000E+000	5.78006E-001	0.00000E+000	7	...........	0
	1089	109	5.89275E-001	2.15312E-006	0.00000E+000	5.89006E-001	0.00000E+000	7	...........	0
	1100	110.1	6.00286E-001	2.26315E-006	0.00000E+000	6.00006E-001	0.00000E+000	7	...........	0