Folder: DataAnalysis/LSV ZFO

Note: README.md
<h1 align="center">Análise de dados</h1>

## :memo: Descrição
Projeto desenvolvido com o intuito de auxiliar na análise dos dados obtidos por meio de diferentes técnicas realizadas em amostras sintetizadas no laboratório de pesquisa NanoREAP, do Instituto de Física da Universidade Federal do Rio Grande do Sul (UFRGS).

## :books: Funcionalidades
* <b>Leitura de dados</b>: Lê um arquivo contendo os dados em questão e retorna um dataframe
* <b>Gráfico</b>: Utiliza o dataframe para gerar um gráfico

## :wrench: Tecnologias utilizadas
* Python

## :dart: Status do projeto
Em construção

File: ZFO_chop.DTA
EXPLAIN
TAG	LSV
TITLE	LABEL	Linear Sweep Voltammetry	Test &Identifier
DATE	LABEL	7/5/2024	Date
TIME	LABEL	15:31:40	Time
NOTES	NOTES	1	&Notes...

PSTAT	PSTAT	L3FNano	Potentiostat
VINIT	POTEN	-5.00000E-001	F	&Initial E (V)
VFINAL	POTEN	6.00000E-001	F	&Final E (V)
SCANRATE	QUANT	9.99998E+000	&Scan Rate (mV/s)
STEPSIZE	QUANT	1.00000E+000	St&ep Size (mV)
IMODE	SELECTOR	0	I/E Range &Mode
IRANGE	QUANT	1.00000E+001	&Max Current (mA)
AREA	QUANT	1.00000E+000	Electrode &Area (cm^2)
ELECTRODETYPE	SELECTOR	0	Electrode Type
STRIPPING	TOGGLE	F	Used for Stripping
POLARITY	TOGGLE	F	Signal Polarity
CONDIT	TWOPARAM	F	1.50000E+001	0.00000E+000	Conditionin&g	Time(s)	E(V)
DELAY	TWOPARAM	F	3.00000E+001	0.00000E+000	Init. De&lay	Time(s)	Stab.(mV/s)
EQDELAY	QUANT	5.00000E+000	Equil. &Time (s)
IRCOMP	SELECTOR	0	IRCom&p
PFCOR	QUANT	5.00000E+001	PF Corr. (ohm)
SAMPLINGMODE	SELECTOR	0	Sampling &Mode
EOC	QUANT	0	Open Circuit (V)
PSTATMODEL	IQUANT	48	Pstat Model
PSTATSECTION	LABEL	IFC1000-07082	Pstat Section
PSTATSERIALNO	LABEL	07082	Pstat Serial Number
CTRLMODE	IQUANT	1	Control Mode
IESTAB	IQUANT	2	I/E Stability
CASPEED	IQUANT	2	Control Amp Speed
CONVENTION	IQUANT	1	Current Convention
ICHRANGE	IQUANT	2	Ich Range
ICHRANGEMODE	TOGGLE	F	Ich Auto Range
ICHOFFSETENABLE	TOGGLE	F	Ich Offset Enable
ICHOFFSET	QUANT	0	Ich Offset (V)
ICHFILTER	IQUANT	3	Ich Filter
VCHRANGE	IQUANT	2	Vch Range
VCHRANGEMODE	TOGGLE	T	Vch Auto Range
VCHOFFSETENABLE	TOGGLE	F	Vch Offset Enable
VCHOFFSET	QUANT	0	Vch Offset (V)
VCHFILTER	IQUANT	3	Vch Filter
IERANGELOWERLIMIT	IQUANT	4	I/E Range Lower Limit
IERANGEMODE	TOGGLE	T	I/E AutoRange
IERANGE	IQUANT	11	I/E Range
ACHSELECT	IQUANT	4	Ach Select
CABLEID	IQUANT	14	Cable ID
DCCALDATE	LABEL	7/3/2024	DC Calibration Date
ACCALDATE	LABEL	7/3/2024	AC Calibration Date
FRAMEWORKVERSION	QUANT	6.24	Framework Version
INSTRUMENTVERSION	LABEL	3.28	Instrument Version
CURVE	TABLE	1101
	Pt	T	Vf	Im	Vu	Sig	Ach	IERange	Over	Cycle
	#	s	V vs. Ref.	A	V	V	V	#	bits	#
	0	0.1	-5.00010E-001	1.93704E-006	0.00000E+000	-4.99988E-001	0.00000E+000	11	...........	0
	11	1.2	-4.88899E-001	-3.04731E-006	0.00000E+000	-4.88988E-001	0.00000E+000	7	...........	0
	22	2.3	-4.77988E-001	-2.08338E-006	0.00000E+000	-4.77988E-001	0.00000E+000	7	...........	0
	33	3.4	-4.66977E-001	-1.54756E-006	0.00000E+000	-4.66987E-001	0.00000E+000	7	...........	0
	44	4.5	-4.55966E-001	-1.13012E-006	0.00000E+000	-4.55987E-001	0.00000E+000	7	...........	0
	55	5.6	-4.44955E-001	-8.50373E-007	0.00000E+000	-4.44986E-001	0.00000E+000	7	...........	0
	66	6.7	-4.33844E-001	-1.08089E-008	0.00000E+000	-4.33986E-001	0.00000E+000	7	...........	0
	77	7.8	-4.23033E-001	-1.88858E-007	0.00000E+000	-4.22985E-001	0.00000E+000	7	...........	0
	88	8.9	-4.11922E-001	-1.64518E-007	0.00000E+000	-4.11985E-001	0.00000E+000	7	...........	0
	99	10	-4.00911E-001	-7.28259E-008	0.00000E+000	-4.00984E-001	0.00000E+000	7	...........	0
	110	11.1	-3.89900E-001	-7.76019E-007	0.00000E+000	-3.89984E-001	0.00000E+000	7	...........	0
	121	12.2	-3.78989E-001	-4.74270E-007	0.00000E+000	-3.78984E-001	0.00000E+000	7	...........	0
	132	13.3	-3.67978E-001	-2.89219E-007	0.00000E+000	-3.67983E-001	0.00000E+000	7	...........	0
	143	14.4	-3.56867E-001	-1.24840E-007	0.00000E+000	-3.56983E-001	0.00000E+000	7	...........	0
	154	15.5	-3.45956E-001	-1.22840E-007	0.00000E+000	-3.45982E-001	0.00000E+000	7	...........	0
	165	16.6	-3.34945E-001	1.08583E-006	0.00000E+000	-3.34982E-001	0.00000E+000	7	...........	0
	176	17.7	-3.23834E-001	6.48706E-007	0.00000E+000	-3.23981E-001	0.00000E+000	7	...........	0
	187	18.8	-3.12923E-001	6.01026E-007	0.00000E+000	-3.12981E-001	0.00000E+000	7	...........	0
	198	19.9	-3.01912E-001	5.26672E-007	0.00000E+000	-3.01980E-001	0.00000E+000	7	...........	0
	209	21	-2.90801E-001	-1.86524E-007	0.00000E+000	-2.90980E-001	0.00000E+000	7	...........	0
	220	22.1	-2.79790E-001	-8.84969E-008	0.00000E+000	-2.79979E-001	0.00000E+000	7	...........	0
	231	23.2	-2.68880E-001	-6.88249E-008	0.00000E+000	-2.68979E-001	0.00000E+000	7	...........	0
	242	24.3	-2.57869E-001	-2.28122E-008	0.00000E+000	-2.57979E-001	0.00000E+000	7	...........	0
	253	25.4	-2.46757E-001	-5.88221E-008	0.00000E+000	-2.46978E-001	0.00000E+000	7	...........	0
	264	26.5	-2.35877E-001	1.11383E-006	0.00000E+000	-2.35978E-001	0.00000E+000	7	...........	0
	275	27.6	-2.24856E-001	8.11084E-007	0.00000E+000	-2.24977E-001	0.00000E+000	7	...........	0
	286	28.7	-2.13865E-001	8.75101E-007	0.00000E+000	-2.13977E-001	0.00000E+000	7	...........	0
	297	29.8	-2.02874E-001	6.87383E-007	0.00000E+000	-2.02976E-001	0.00000E+000	7	...........	0
	308	30.9	-1.91863E-001	-1.06502E-007	0.00000E+000	-1.91976E-001	0.00000E+000	7	...........	0
	319	32	-1.80872E-001	5.27537E-010	0.00000E+000	-1.80975E-001	0.00000E+000	7	...........	0
	330	33.1	-1.69861E-001	8.25501E-008	0.00000E+000	-1.69975E-001	0.00000E+000	7	...........	0
	341	34.2	-1.58931E-001	-1.84777E-008	0.00000E+000	-1.59025E-001	0.00000E+000	7	...........	0
	352	35.3	-1.47950E-001	3.88714E-008	0.00000E+000	-1.48024E-001	0.00000E+000	7	...........	0
	363	36.4	-1.36949E-001	1.36190E-006	0.00000E+000	-1.37024E-001	0.00000E+000	7	...........	0
	374	37.5	-1.25958E-001	1.19319E-006	0.00000E+000	-1.26023E-001	0.00000E+000	7	...........	0
	385	38.6	-1.14967E-001	1.13717E-006	0.00000E+000	-1.15023E-001	0.00000E+000	7	...........	0
	396	39.7	-1.03986E-001	1.04715E-006	0.00000E+000	-1.04022E-001	0.00000E+000	7	...........	0
	407	40.8	-9.29549E-002	-1.36510E-007	0.00000E+000	-9.30219E-002	0.00000E+000	7	...........	0
	418	41.9	-8.19640E-002	-5.44876E-008	0.00000E+000	-8.20214E-002	0.00000E+000	7	...........	0
	429	43	-7.09830E-002	-6.61575E-008	0.00000E+000	-7.10210E-002	0.00000E+000	7	...........	0
	440	44.1	-5.99621E-002	-2.68133E-008	0.00000E+000	-6.00205E-002	0.00000E+000	7	...........	0
	451	45.2	-4.89511E-002	-4.48183E-008	0.00000E+000	-4.90201E-002	0.00000E+000	7	...........	0
	462	46.3	-3.79602E-002	1.93306E-006	0.00000E+000	-3.80196E-002	0.00000E+000	7	...........	0
	473	47.4	-2.69692E-002	1.72800E-006	0.00000E+000	-2.70192E-002	0.00000E+000	7	...........	0
	484	48.5	-1.59630E-002	1.91805E-006	0.00000E+000	-1.60187E-002	0.00000E+000	7	...........	0
	495	49.6	-4.96109E-003	1.78969E-006	0.00000E+000	-5.01826E-003	0.00000E+000	7	...........	0
	506	50.7	6.01884E-003	-1.42845E-007	0.00000E+000	5.98219E-003	0.00000E+000	7	...........	0
	517	51.8	1.70288E-002	-3.74829E-008	0.00000E+000	1.69826E-002	0.00000E+000	7	...........	0
	528	52.9	2.80555E-002	1.68654E-008	0.00000E+000	2.79831E-002	0.00000E+000	7	...........	0
	539	54	3.90665E-002	3.92048E-008	0.00000E+000	3.89835E-002	0.00000E+000	7	...........	0
	550	55.1	5.00374E-002	2.68681E-008	0.00000E+000	4.99840E-002	0.00000E+000	7	...........	0
	561	56.2	6.10484E-002	2.90433E-006	0.00000E+000	6.09844E-002	0.00000E+000	7	...........	0
	572	57.3	7.20393E-002	2.84664E-006	0.00000E+000	7.19849E-002	0.00000E+000	7	...........	0
	583	58.4	8.30102E-002	2.72261E-006	0.00000E+000	8.29853E-002	0.00000E+000	7	...........	0
	594	59.5	9.40112E-002	2.76395E-006	0.00000E+000	9.39858E-002	0.00000E+000	7	...........	0
	605	60.6	1.05032E-001	-4.60266E-007	0.00000E+000	1.04986E-001	0.00000E+000	7	...........	0
	616	61.7	1.16043E-001	-7.44931E-008	0.00000E+000	1.15987E-001	0.00000E+000	7	...........	0
	627	62.8	1.27014E-001	1.68654E-008	0.00000E+000	1.26987E-001	0.00000E+000	7	...........	0
[...]
	671	67.2	1.71028E-001	3.79590E-006	0.00000E+000	1.70989E-001	0.00000E+000	7	...........	0
	682	68.3	1.82019E-001	3.80324E-006	0.00000E+000	1.81989E-001	0.00000E+000	7	...........	0
	693	69.4	1.93010E-001	4.15400E-006	0.00000E+000	1.92990E-001	0.00000E+000	7	...........	0
	704	70.5	2.04031E-001	-8.22699E-007	0.00000E+000	2.03990E-001	0.00000E+000	7	...........	0
	715	71.6	2.15022E-001	-2.44206E-007	0.00000E+000	2.14991E-001	0.00000E+000	7	...........	0
	726	72.7	2.26003E-001	-9.64991E-008	0.00000E+000	2.25991E-001	0.00000E+000	7	...........	0
	737	73.8	2.37004E-001	-9.47521E-009	0.00000E+000	2.36992E-001	0.00000E+000	7	...........	0
	748	74.9	2.48004E-001	5.19549E-009	0.00000E+000	2.47992E-001	0.00000E+000	7	...........	0
	759	76	2.58955E-001	5.96950E-006	0.00000E+000	2.58993E-001	0.00000E+000	7	...........	0
	770	77.1	2.70157E-001	5.73577E-006	0.00000E+000	2.69993E-001	0.00000E+000	7	...........	0
	781	78.2	2.81068E-001	5.17095E-006	0.00000E+000	2.80993E-001	0.00000E+000	7	...........	0
	792	79.3	2.92079E-001	5.30298E-006	0.00000E+000	2.91994E-001	0.00000E+000	7	...........	0
	803	80.4	3.03190E-001	5.18028E-006	0.00000E+000	3.02994E-001	0.00000E+000	7	...........	0
	814	81.5	3.14201E-001	-5.02611E-007	0.00000E+000	3.13995E-001	0.00000E+000	7	...........	0
	825	82.6	3.25112E-001	-2.14865E-007	0.00000E+000	3.24995E-001	0.00000E+000	7	...........	0
	836	83.7	3.36223E-001	-7.44931E-008	0.00000E+000	3.35996E-001	0.00000E+000	7	...........	0
	847	84.8	3.47134E-001	1.08637E-008	0.00000E+000	3.46996E-001	0.00000E+000	7	...........	0
	858	85.9	3.58145E-001	7.47913E-006	0.00000E+000	3.57997E-001	0.00000E+000	8	...........	0
	869	87	3.69156E-001	7.25952E-006	0.00000E+000	3.68997E-001	0.00000E+000	7	...........	0
	880	88.1	3.80167E-001	7.17550E-006	0.00000E+000	3.79997E-001	0.00000E+000	7	...........	0
	891	89.2	3.91177E-001	6.72838E-006	0.00000E+000	3.90998E-001	0.00000E+000	7	...........	0
	902	90.3	4.02289E-001	-9.56735E-007	0.00000E+000	4.01998E-001	0.00000E+000	7	...........	0
	913	91.4	4.13199E-001	-4.89941E-007	0.00000E+000	4.12999E-001	0.00000E+000	7	...........	0
	924	92.5	4.24210E-001	-2.44873E-007	0.00000E+000	4.23999E-001	0.00000E+000	7	...........	0
	935	93.6	4.35221E-001	-1.42845E-007	0.00000E+000	4.35000E-001	0.00000E+000	7	...........	0
	946	94.7	4.46232E-001	-4.68188E-008	0.00000E+000	4.46000E-001	0.00000E+000	7	...........	0
	957	95.8	4.57143E-001	1.07994E-005	0.00000E+000	4.57001E-001	0.00000E+000	8	...........	0
	968	96.9	4.68154E-001	9.97597E-006	0.00000E+000	4.68001E-001	0.00000E+000	8	...........	0
	979	98	4.79165E-001	9.84929E-006	0.00000E+000	4.79002E-001	0.00000E+000	8	...........	0
	990	99.1	4.90176E-001	9.99597E-006	0.00000E+000	4.90002E-001	0.00000E+000	8	...........	0
	1001	100.2	5.01187E-001	9.96597E-006	0.00000E+000	5.01002E-001	0.00000E+000	8	...........	0
	1012	101.3	5.12198E-001	-3.12892E-007	0.00000E+000	5.12003E-001	0.00000E+000	7	...........	0
	1023	102.4	5.23209E-001	-3.91500E-008	0.00000E+000	5.23003E-001	0.00000E+000	7	...........	0
	1034	103.5	5.34220E-001	1.11225E-007	0.00000E+000	5.34004E-001	0.00000E+000	7	...........	0
	1045	104.6	5.45231E-001	2.23922E-007	0.00000E+000	5.45004E-001	0.00000E+000	7	...........	0
	1056	105.7	5.56242E-001	1.35062E-005	0.00000E+000	5.56005E-001	0.00000E+000	8	...........	0
	1067	106.8	5.67253E-001	1.16928E-005	0.00000E+000	5.67005E-001	0.00000E+000	8	...........	0
	1078	107.9	5.78264E-001	1.22761E-005	0.00000E+000	5.78006E-001	0.00000E+000	8	...........	0
	1089	109	5.89275E-001	1.22928E-005	0.00000E+000	5.89006E-001	0.00000E+000	8	...........	0
	1100	110.1	6.00286E-001	1.36629E-005	0.00000E+000	6.00006E-001	0.00000E+000	8	...........	0

File: ZFO_chop_reator.DTA
EXPLAIN
TAG	LSV
TITLE	LABEL	Linear Sweep Voltammetry	Test &Identifier
DATE	LABEL	7/5/2024	Date
TIME	LABEL	18:37:33	Time
NOTES	NOTES	1	&Notes...

PSTAT	PSTAT	L3FNano	Potentiostat
VINIT	POTEN	-5.00000E-001	F	&Initial E (V)
VFINAL	POTEN	6.00000E-001	F	&Final E (V)
SCANRATE	QUANT	9.99998E+000	&Scan Rate (mV/s)
STEPSIZE	QUANT	1.00000E+000	St&ep Size (mV)
IMODE	SELECTOR	0	I/E Range &Mode
IRANGE	QUANT	1.00000E+001	&Max Current (mA)
AREA	QUANT	1.00000E+000	Electrode &Area (cm^2)
ELECTRODETYPE	SELECTOR	0	Electrode Type
STRIPPING	TOGGLE	F	Used for Stripping
POLARITY	TOGGLE	F	Signal Polarity
CONDIT	TWOPARAM	F	1.50000E+001	0.00000E+000	Conditionin&g	Time(s)	E(V)
DELAY	TWOPARAM	F	3.00000E+001	0.00000E+000	Init. De&lay	Time(s)	Stab.(mV/s)
EQDELAY	QUANT	5.00000E+000	Equil. &Time (s)
IRCOMP	SELECTOR	0	IRCom&p
PFCOR	QUANT	5.00000E+001	PF Corr. (ohm)
SAMPLINGMODE	SELECTOR	0	Sampling &Mode
EOC	QUANT	0	Open Circuit (V)
PSTATMODEL	IQUANT	48	Pstat Model
PSTATSECTION	LABEL	IFC1000-07082	Pstat Section
PSTATSERIALNO	LABEL	07082	Pstat Serial Number
CTRLMODE	IQUANT	1	Control Mode
IESTAB	IQUANT	2	I/E Stability
CASPEED	IQUANT	2	Control Amp Speed
CONVENTION	IQUANT	1	Current Convention
ICHRANGE	IQUANT	2	Ich Range
ICHRANGEMODE	TOGGLE	F	Ich Auto Range
ICHOFFSETENABLE	TOGGLE	F	Ich Offset Enable
ICHOFFSET	QUANT	0	Ich Offset (V)
ICHFILTER	IQUANT	3	Ich Filter
VCHRANGE	IQUANT	2	Vch Range
VCHRANGEMODE	TOGGLE	T	Vch Auto Range
VCHOFFSETENABLE	TOGGLE	F	Vch Offset Enable
VCHOFFSET	QUANT	0	Vch Offset (V)
VCHFILTER	IQUANT	3	Vch Filter
IERANGELOWERLIMIT	IQUANT	4	I/E Range Lower Limit
IERANGEMODE	TOGGLE	T	I/E AutoRange
IERANGE	IQUANT	11	I/E Range
ACHSELECT	IQUANT	4	Ach Select
CABLEID	IQUANT	14	Cable ID
DCCALDATE	LABEL	7/3/2024	DC Calibration Date
ACCALDATE	LABEL	7/3/2024	AC Calibration Date
FRAMEWORKVERSION	QUANT	6.24	Framework Version
INSTRUMENTVERSION	LABEL	3.28	Instrument Version
CURVE	TABLE	1101
	Pt	T	Vf	Im	Vu	Sig	Ach	IERange	Over	Cycle
	#	s	V vs. Ref.	A	V	V	V	#	bits	#
	0	0.1	-5.00110E-001	-1.39019E-006	0.00000E+000	-4.99988E-001	0.00000E+000	11	...........	0
	11	1.2	-4.89099E-001	-3.24036E-006	0.00000E+000	-4.88988E-001	0.00000E+000	7	...........	0
	22	2.3	-4.78088E-001	-2.42547E-006	0.00000E+000	-4.77988E-001	0.00000E+000	7	...........	0
	33	3.4	-4.67077E-001	-1.94534E-006	0.00000E+000	-4.66987E-001	0.00000E+000	7	...........	0
	44	4.5	-4.56066E-001	-1.54556E-006	0.00000E+000	-4.55987E-001	0.00000E+000	7	...........	0
	55	5.6	-4.45055E-001	-6.75658E-007	0.00000E+000	-4.44986E-001	0.00000E+000	7	...........	0
	66	6.7	-4.34144E-001	-9.94079E-007	0.00000E+000	-4.33986E-001	0.00000E+000	7	...........	0
	77	7.8	-4.23033E-001	-7.17336E-007	0.00000E+000	-4.22985E-001	0.00000E+000	7	...........	0
	88	8.9	-4.12222E-001	-3.23228E-007	0.00000E+000	-4.11985E-001	0.00000E+000	7	...........	0
	99	10	-4.01011E-001	-1.11170E-007	0.00000E+000	-4.00984E-001	0.00000E+000	7	...........	0
	110	11.1	-3.90000E-001	-2.90552E-007	0.00000E+000	-3.89984E-001	0.00000E+000	7	...........	0
	121	12.2	-3.78989E-001	-1.16171E-007	0.00000E+000	-3.78984E-001	0.00000E+000	7	...........	0
	132	13.3	-3.68078E-001	3.72043E-008	0.00000E+000	-3.67983E-001	0.00000E+000	7	...........	0
	143	14.4	-3.56967E-001	5.58761E-008	0.00000E+000	-3.56983E-001	0.00000E+000	7	...........	0
	154	15.5	-3.45956E-001	8.02161E-008	0.00000E+000	-3.45982E-001	0.00000E+000	7	...........	0
	165	16.6	-3.35045E-001	6.30034E-007	0.00000E+000	-3.34982E-001	0.00000E+000	7	...........	0
	176	17.7	-3.24135E-001	4.80659E-007	0.00000E+000	-3.23981E-001	0.00000E+000	7	...........	0
	187	18.8	-3.13023E-001	4.84661E-007	0.00000E+000	-3.12981E-001	0.00000E+000	7	...........	0
	198	19.9	-3.02013E-001	4.33980E-007	0.00000E+000	-3.01980E-001	0.00000E+000	7	...........	0
	209	21	-2.91102E-001	3.12026E-008	0.00000E+000	-2.90980E-001	0.00000E+000	7	...........	0
	220	22.1	-2.80091E-001	1.30897E-007	0.00000E+000	-2.79979E-001	0.00000E+000	7	...........	0
	231	23.2	-2.69080E-001	1.61238E-007	0.00000E+000	-2.68979E-001	0.00000E+000	7	...........	0
	242	24.3	-2.58069E-001	2.22589E-007	0.00000E+000	-2.57979E-001	0.00000E+000	7	...........	0
	253	25.4	-2.47058E-001	3.09612E-007	0.00000E+000	-2.46978E-001	0.00000E+000	7	...........	0
	264	26.5	-2.36017E-001	1.03748E-006	0.00000E+000	-2.35978E-001	0.00000E+000	7	...........	0
	275	27.6	-2.24986E-001	9.43453E-007	0.00000E+000	-2.24977E-001	0.00000E+000	7	...........	0
	286	28.7	-2.13975E-001	8.73101E-007	0.00000E+000	-2.13977E-001	0.00000E+000	7	...........	0
	297	29.8	-2.02994E-001	8.21420E-007	0.00000E+000	-2.02976E-001	0.00000E+000	7	...........	0
	308	30.9	-1.91973E-001	1.81577E-007	0.00000E+000	-1.91976E-001	0.00000E+000	7	...........	0
	319	32	-1.80973E-001	1.39232E-007	0.00000E+000	-1.80975E-001	0.00000E+000	7	...........	0
	330	33.1	-1.69962E-001	5.28753E-008	0.00000E+000	-1.69975E-001	0.00000E+000	7	...........	0
	341	34.2	-1.59011E-001	1.46568E-007	0.00000E+000	-1.59025E-001	0.00000E+000	7	...........	0
	352	35.3	-1.48040E-001	2.11586E-007	0.00000E+000	-1.48024E-001	0.00000E+000	7	...........	0
	363	36.4	-1.37059E-001	1.14284E-006	0.00000E+000	-1.37024E-001	0.00000E+000	7	...........	0
	374	37.5	-1.26038E-001	1.10350E-006	0.00000E+000	-1.26023E-001	0.00000E+000	7	...........	0
	385	38.6	-1.15057E-001	1.07949E-006	0.00000E+000	-1.15023E-001	0.00000E+000	7	...........	0
	396	39.7	-1.04046E-001	9.91466E-007	0.00000E+000	-1.04022E-001	0.00000E+000	7	...........	0
	407	40.8	-9.30350E-002	2.65347E-008	0.00000E+000	-9.30219E-002	0.00000E+000	7	...........	0
	418	41.9	-8.20641E-002	-1.81443E-008	0.00000E+000	-8.20214E-002	0.00000E+000	7	...........	0
	429	43	-7.10631E-002	1.38232E-007	0.00000E+000	-7.10210E-002	0.00000E+000	7	...........	0
	440	44.1	-6.00922E-002	1.73242E-007	0.00000E+000	-6.00205E-002	0.00000E+000	7	...........	0
	451	45.2	-4.90512E-002	-4.78191E-008	0.00000E+000	-4.90201E-002	0.00000E+000	7	...........	0
	462	46.3	-3.80903E-002	1.04381E-006	0.00000E+000	-3.80196E-002	0.00000E+000	7	...........	0
	473	47.4	-2.70893E-002	9.17780E-007	0.00000E+000	-2.70192E-002	0.00000E+000	7	...........	0
	484	48.5	-1.60191E-002	7.90078E-007	0.00000E+000	-1.60187E-002	0.00000E+000	7	...........	0
	495	49.6	-5.03516E-003	1.13417E-006	0.00000E+000	-5.01826E-003	0.00000E+000	7	...........	0
	506	50.7	5.92175E-003	2.64600E-007	0.00000E+000	5.98219E-003	0.00000E+000	7	...........	0
	517	51.8	1.69507E-002	1.10224E-007	0.00000E+000	1.69826E-002	0.00000E+000	7	...........	0
	528	52.9	2.79454E-002	1.63906E-007	0.00000E+000	2.79831E-002	0.00000E+000	7	...........	0
	539	54	3.89364E-002	1.33898E-007	0.00000E+000	3.89835E-002	0.00000E+000	7	...........	0
	550	55.1	5.00074E-002	3.69962E-007	0.00000E+000	4.99840E-002	0.00000E+000	7	...........	0
	561	56.2	6.09483E-002	1.63164E-006	0.00000E+000	6.09844E-002	0.00000E+000	7	...........	0
	572	57.3	7.19592E-002	1.56229E-006	0.00000E+000	7.19849E-002	0.00000E+000	7	...........	0
	583	58.4	8.29802E-002	1.73267E-006	0.00000E+000	8.29853E-002	0.00000E+000	7	...........	0
	594	59.5	9.39311E-002	1.70566E-006	0.00000E+000	9.39858E-002	0.00000E+000	7	...........	0
	605	60.6	1.04962E-001	7.19725E-007	0.00000E+000	1.04986E-001	0.00000E+000	7	...........	0
	616	61.7	1.15943E-001	6.49039E-007	0.00000E+000	1.15987E-001	0.00000E+000	7	...........	0
	627	62.8	1.26934E-001	3.70963E-007	0.00000E+000	1.26987E-001	0.00000E+000	7	...........	0
[...]
	671	67.2	1.70918E-001	2.15979E-006	0.00000E+000	1.70989E-001	0.00000E+000	7	...........	0
	682	68.3	1.81909E-001	1.83470E-006	0.00000E+000	1.81989E-001	0.00000E+000	7	...........	0
	693	69.4	1.92940E-001	2.04042E-006	0.00000E+000	1.92990E-001	0.00000E+000	7	...........	0
	704	70.5	2.03931E-001	4.48984E-007	0.00000E+000	2.03990E-001	0.00000E+000	7	...........	0
	715	71.6	2.14932E-001	2.06584E-007	0.00000E+000	2.14991E-001	0.00000E+000	7	...........	0
	726	72.7	2.25963E-001	2.27923E-007	0.00000E+000	2.25991E-001	0.00000E+000	7	...........	0
	737	73.8	2.36883E-001	2.53930E-007	0.00000E+000	2.36992E-001	0.00000E+000	7	...........	0
	748	74.9	2.47934E-001	-1.54769E-008	0.00000E+000	2.47992E-001	0.00000E+000	7	...........	0
	759	76	2.58895E-001	2.60258E-006	0.00000E+000	2.58993E-001	0.00000E+000	7	...........	0
	770	77.1	2.69957E-001	2.59491E-006	0.00000E+000	2.69993E-001	0.00000E+000	7	...........	0
	781	78.2	2.81068E-001	2.62425E-006	0.00000E+000	2.80993E-001	0.00000E+000	7	...........	0
	792	79.3	2.92079E-001	2.66726E-006	0.00000E+000	2.91994E-001	0.00000E+000	7	...........	0
	803	80.4	3.02990E-001	1.46860E-006	0.00000E+000	3.02994E-001	0.00000E+000	7	...........	0
	814	81.5	3.14001E-001	3.51624E-007	0.00000E+000	3.13995E-001	0.00000E+000	7	...........	0
	825	82.6	3.25112E-001	4.75325E-007	0.00000E+000	3.24995E-001	0.00000E+000	7	...........	0
	836	83.7	3.36123E-001	6.86049E-007	0.00000E+000	3.35996E-001	0.00000E+000	7	...........	0
	847	84.8	3.47034E-001	6.82048E-007	0.00000E+000	3.46996E-001	0.00000E+000	7	...........	0
	858	85.9	3.58145E-001	3.57484E-006	0.00000E+000	3.57997E-001	0.00000E+000	7	...........	0
	869	87	3.69156E-001	3.36212E-006	0.00000E+000	3.68997E-001	0.00000E+000	7	...........	0
	880	88.1	3.80167E-001	3.30310E-006	0.00000E+000	3.79997E-001	0.00000E+000	7	...........	0
	891	89.2	3.91177E-001	3.74656E-006	0.00000E+000	3.90998E-001	0.00000E+000	7	...........	0
	902	90.3	4.02088E-001	3.62686E-006	0.00000E+000	4.01998E-001	0.00000E+000	7	...........	0
	913	91.4	4.12999E-001	7.55735E-007	0.00000E+000	4.12999E-001	0.00000E+000	7	...........	0
	924	92.5	4.24110E-001	7.70739E-007	0.00000E+000	4.23999E-001	0.00000E+000	7	...........	0
	935	93.6	4.35121E-001	8.68099E-007	0.00000E+000	4.35000E-001	0.00000E+000	7	...........	0
	946	94.7	4.46132E-001	1.06582E-006	0.00000E+000	4.46000E-001	0.00000E+000	7	...........	0
	957	95.8	4.57143E-001	4.60879E-006	0.00000E+000	4.57001E-001	0.00000E+000	7	...........	0
	968	96.9	4.68054E-001	4.73416E-006	0.00000E+000	4.68001E-001	0.00000E+000	7	...........	0
	979	98	4.79165E-001	4.61480E-006	0.00000E+000	4.79002E-001	0.00000E+000	7	...........	0
	990	99.1	4.90076E-001	4.60679E-006	0.00000E+000	4.90002E-001	0.00000E+000	7	...........	0
	1001	100.2	5.01087E-001	4.73916E-006	0.00000E+000	5.01002E-001	0.00000E+000	7	...........	0
	1012	101.3	5.12098E-001	1.12850E-006	0.00000E+000	5.12003E-001	0.00000E+000	7	...........	0
	1023	102.4	5.23209E-001	1.22987E-006	0.00000E+000	5.23003E-001	0.00000E+000	7	...........	0
	1034	103.5	5.34120E-001	1.29688E-006	0.00000E+000	5.34004E-001	0.00000E+000	7	...........	0
	1045	104.6	5.45231E-001	1.39224E-006	0.00000E+000	5.45004E-001	0.00000E+000	7	...........	0
	1056	105.7	5.56142E-001	5.72110E-006	0.00000E+000	5.56005E-001	0.00000E+000	7	...........	0
	1067	106.8	5.67153E-001	5.78412E-006	0.00000E+000	5.67005E-001	0.00000E+000	7	...........	0
	1078	107.9	5.78164E-001	6.04485E-006	0.00000E+000	5.78006E-001	0.00000E+000	7	...........	0
	1089	109	5.89175E-001	6.44730E-006	0.00000E+000	5.89006E-001	0.00000E+000	7	...........	0
	1100	110.1	6.00085E-001	2.69393E-006	0.00000E+000	6.00006E-001	0.00000E+000	7	...........	0