Folder: DataAnalysis/LSV ZFO (part 11)

File: ZFO_h400_dark3.DTA
EXPLAIN
TAG	LSV
TITLE	LABEL	Linear Sweep Voltammetry	Test &Identifier
DATE	LABEL	7/5/2024	Date
TIME	LABEL	17:15:56	Time
NOTES	NOTES	1	&Notes...

PSTAT	PSTAT	L3FNano	Potentiostat
VINIT	POTEN	-5.00000E-001	F	&Initial E (V)
VFINAL	POTEN	6.00000E-001	F	&Final E (V)
SCANRATE	QUANT	9.99998E+000	&Scan Rate (mV/s)
STEPSIZE	QUANT	1.00000E+000	St&ep Size (mV)
IMODE	SELECTOR	0	I/E Range &Mode
IRANGE	QUANT	1.00000E+001	&Max Current (mA)
AREA	QUANT	1.00000E+000	Electrode &Area (cm^2)
ELECTRODETYPE	SELECTOR	0	Electrode Type
STRIPPING	TOGGLE	F	Used for Stripping
POLARITY	TOGGLE	F	Signal Polarity
CONDIT	TWOPARAM	F	1.50000E+001	0.00000E+000	Conditionin&g	Time(s)	E(V)
DELAY	TWOPARAM	F	3.00000E+001	0.00000E+000	Init. De&lay	Time(s)	Stab.(mV/s)
EQDELAY	QUANT	5.00000E+000	Equil. &Time (s)
IRCOMP	SELECTOR	0	IRCom&p
PFCOR	QUANT	5.00000E+001	PF Corr. (ohm)
SAMPLINGMODE	SELECTOR	0	Sampling &Mode
EOC	QUANT	0	Open Circuit (V)
PSTATMODEL	IQUANT	48	Pstat Model
PSTATSECTION	LABEL	IFC1000-07082	Pstat Section
PSTATSERIALNO	LABEL	07082	Pstat Serial Number
CTRLMODE	IQUANT	1	Control Mode
IESTAB	IQUANT	2	I/E Stability
CASPEED	IQUANT	2	Control Amp Speed
CONVENTION	IQUANT	1	Current Convention
ICHRANGE	IQUANT	2	Ich Range
ICHRANGEMODE	TOGGLE	F	Ich Auto Range
ICHOFFSETENABLE	TOGGLE	F	Ich Offset Enable
ICHOFFSET	QUANT	0	Ich Offset (V)
ICHFILTER	IQUANT	3	Ich Filter
VCHRANGE	IQUANT	2	Vch Range
VCHRANGEMODE	TOGGLE	T	Vch Auto Range
VCHOFFSETENABLE	TOGGLE	F	Vch Offset Enable
VCHOFFSET	QUANT	0	Vch Offset (V)
VCHFILTER	IQUANT	3	Vch Filter
IERANGELOWERLIMIT	IQUANT	4	I/E Range Lower Limit
IERANGEMODE	TOGGLE	T	I/E AutoRange
IERANGE	IQUANT	11	I/E Range
ACHSELECT	IQUANT	4	Ach Select
CABLEID	IQUANT	14	Cable ID
DCCALDATE	LABEL	7/3/2024	DC Calibration Date
ACCALDATE	LABEL	7/3/2024	AC Calibration Date
FRAMEWORKVERSION	QUANT	6.24	Framework Version
INSTRUMENTVERSION	LABEL	3.28	Instrument Version
CURVE	TABLE	1101
	Pt	T	Vf	Im	Vu	Sig	Ach	IERange	Over	Cycle
	#	s	V vs. Ref.	A	V	V	V	#	bits	#
	0	0.1	-5.00110E-001	-8.04466E-006	0.00000E+000	-4.99988E-001	0.00000E+000	11	...........	0
	11	1.2	-4.89099E-001	-6.89903E-006	0.00000E+000	-4.88988E-001	0.00000E+000	7	...........	0
	22	2.3	-4.78088E-001	-6.02813E-006	0.00000E+000	-4.77988E-001	0.00000E+000	7	...........	0
	33	3.4	-4.67077E-001	-5.33260E-006	0.00000E+000	-4.66987E-001	0.00000E+000	7	...........	0
	44	4.5	-4.56066E-001	-4.74211E-006	0.00000E+000	-4.55987E-001	0.00000E+000	7	...........	0
	55	5.6	-4.45055E-001	-4.18996E-006	0.00000E+000	-4.44986E-001	0.00000E+000	7	...........	0
	66	6.7	-4.33944E-001	-3.49777E-006	0.00000E+000	-4.33986E-001	0.00000E+000	7	...........	0
	77	7.8	-4.22933E-001	-3.05765E-006	0.00000E+000	-4.22985E-001	0.00000E+000	7	...........	0
	88	8.9	-4.12022E-001	-2.67821E-006	0.00000E+000	-4.11985E-001	0.00000E+000	7	...........	0
	99	10	-4.01011E-001	-2.38679E-006	0.00000E+000	-4.00984E-001	0.00000E+000	7	...........	0
	110	11.1	-3.90100E-001	-2.10972E-006	0.00000E+000	-3.89984E-001	0.00000E+000	7	...........	0
	121	12.2	-3.78989E-001	-2.05504E-006	0.00000E+000	-3.78984E-001	0.00000E+000	7	...........	0
	132	13.3	-3.67978E-001	-1.84965E-006	0.00000E+000	-3.67983E-001	0.00000E+000	7	...........	0
	143	14.4	-3.57067E-001	-1.43620E-006	0.00000E+000	-3.56983E-001	0.00000E+000	7	...........	0
	154	15.5	-3.46156E-001	-1.28983E-006	0.00000E+000	-3.45982E-001	0.00000E+000	7	...........	0
	165	16.6	-3.35045E-001	-1.14012E-006	0.00000E+000	-3.34982E-001	0.00000E+000	7	...........	0
	176	17.7	-3.24034E-001	-1.19880E-006	0.00000E+000	-3.23981E-001	0.00000E+000	7	...........	0
	187	18.8	-3.13023E-001	-1.03609E-006	0.00000E+000	-3.12981E-001	0.00000E+000	7	...........	0
	198	19.9	-3.02013E-001	-6.70323E-007	0.00000E+000	-3.01980E-001	0.00000E+000	7	...........	0
	209	21	-2.91102E-001	-4.91941E-007	0.00000E+000	-2.90980E-001	0.00000E+000	7	...........	0
	220	22.1	-2.79991E-001	-2.89886E-007	0.00000E+000	-2.79979E-001	0.00000E+000	7	...........	0
	231	23.2	-2.68980E-001	-7.31594E-008	0.00000E+000	-2.68979E-001	0.00000E+000	7	...........	0
	242	24.3	-2.57969E-001	-5.11533E-008	0.00000E+000	-2.57979E-001	0.00000E+000	7	...........	0
	253	25.4	-2.46958E-001	1.59905E-007	0.00000E+000	-2.46978E-001	0.00000E+000	7	...........	0
	264	26.5	-2.35947E-001	2.21588E-007	0.00000E+000	-2.35978E-001	0.00000E+000	7	...........	0
	275	27.6	-2.24926E-001	3.24283E-007	0.00000E+000	-2.24977E-001	0.00000E+000	7	...........	0
	286	28.7	-2.13915E-001	4.63655E-007	0.00000E+000	-2.13977E-001	0.00000E+000	7	...........	0
	297	29.8	-2.03045E-001	5.44010E-007	0.00000E+000	-2.02976E-001	0.00000E+000	7	...........	0
	308	30.9	-1.91913E-001	6.66711E-007	0.00000E+000	-1.91976E-001	0.00000E+000	7	...........	0
	319	32	-1.80963E-001	7.80742E-007	0.00000E+000	-1.80975E-001	0.00000E+000	7	...........	0
	330	33.1	-1.69942E-001	8.32423E-007	0.00000E+000	-1.69975E-001	0.00000E+000	7	...........	0
	341	34.2	-1.59021E-001	8.86104E-007	0.00000E+000	-1.59025E-001	0.00000E+000	7	...........	0
	352	35.3	-1.48060E-001	9.16446E-007	0.00000E+000	-1.48024E-001	0.00000E+000	7	...........	0
	363	36.4	-1.37049E-001	9.36118E-007	0.00000E+000	-1.37024E-001	0.00000E+000	7	...........	0
	374	37.5	-1.26058E-001	9.87799E-007	0.00000E+000	-1.26023E-001	0.00000E+000	7	...........	0
	385	38.6	-1.15057E-001	1.01247E-006	0.00000E+000	-1.15023E-001	0.00000E+000	7	...........	0
	396	39.7	-1.04056E-001	1.17652E-006	0.00000E+000	-1.04022E-001	0.00000E+000	7	...........	0
	407	40.8	-9.30650E-002	1.26654E-006	0.00000E+000	-9.30219E-002	0.00000E+000	7	...........	0
	418	41.9	-8.20741E-002	1.42892E-006	0.00000E+000	-8.20214E-002	0.00000E+000	7	...........	0
	429	43	-7.10631E-002	1.47893E-006	0.00000E+000	-7.10210E-002	0.00000E+000	7	...........	0
	440	44.1	-6.00822E-002	1.51394E-006	0.00000E+000	-6.00205E-002	0.00000E+000	7	...........	0
	451	45.2	-4.90512E-002	1.59063E-006	0.00000E+000	-4.90201E-002	0.00000E+000	7	...........	0
	462	46.3	-3.80703E-002	1.76568E-006	0.00000E+000	-3.80196E-002	0.00000E+000	7	...........	0
	473	47.4	-2.70793E-002	1.87871E-006	0.00000E+000	-2.70192E-002	0.00000E+000	7	...........	0
	484	48.5	-1.60581E-002	2.02808E-006	0.00000E+000	-1.60187E-002	0.00000E+000	7	...........	0
	495	49.6	-5.04917E-003	2.13045E-006	0.00000E+000	-5.01826E-003	0.00000E+000	7	...........	0
	506	50.7	5.90773E-003	2.21147E-006	0.00000E+000	5.98219E-003	0.00000E+000	7	...........	0
	517	51.8	1.69267E-002	2.20047E-006	0.00000E+000	1.69826E-002	0.00000E+000	7	...........	0
	528	52.9	2.79154E-002	2.19313E-006	0.00000E+000	2.79831E-002	0.00000E+000	7	...........	0
	539	54	3.89264E-002	2.16279E-006	0.00000E+000	3.89835E-002	0.00000E+000	7	...........	0
	550	55.1	4.99273E-002	2.15812E-006	0.00000E+000	4.99840E-002	0.00000E+000	7	...........	0
	561	56.2	6.08782E-002	2.11711E-006	0.00000E+000	6.09844E-002	0.00000E+000	7	...........	0
	572	57.3	7.19392E-002	2.14045E-006	0.00000E+000	7.19849E-002	0.00000E+000	7	...........	0
	583	58.4	8.29001E-002	2.23447E-006	0.00000E+000	8.29853E-002	0.00000E+000	7	...........	0
	594	59.5	9.38911E-002	2.07676E-006	0.00000E+000	9.39858E-002	0.00000E+000	7	...........	0
	605	60.6	1.04892E-001	1.97407E-006	0.00000E+000	1.04986E-001	0.00000E+000	7	...........	0
	616	61.7	1.15933E-001	1.73800E-006	0.00000E+000	1.15987E-001	0.00000E+000	7	...........	0
	627	62.8	1.26904E-001	1.76535E-006	0.00000E+000	1.26987E-001	0.00000E+000	7	...........	0
[...]
	671	67.2	1.70868E-001	1.90005E-006	0.00000E+000	1.70989E-001	0.00000E+000	7	...........	0
	682	68.3	1.81909E-001	2.01108E-006	0.00000E+000	1.81989E-001	0.00000E+000	7	...........	0
	693	69.4	1.92900E-001	2.09010E-006	0.00000E+000	1.92990E-001	0.00000E+000	7	...........	0
	704	70.5	2.03891E-001	2.18713E-006	0.00000E+000	2.03990E-001	0.00000E+000	7	...........	0
	715	71.6	2.14912E-001	2.42186E-006	0.00000E+000	2.14991E-001	0.00000E+000	7	...........	0
	726	72.7	2.25872E-001	2.60291E-006	0.00000E+000	2.25991E-001	0.00000E+000	7	...........	0
	737	73.8	2.36923E-001	2.78496E-006	0.00000E+000	2.36992E-001	0.00000E+000	7	...........	0
	748	74.9	2.47914E-001	2.83397E-006	0.00000E+000	2.47992E-001	0.00000E+000	7	...........	0
	759	76	2.58875E-001	2.87965E-006	0.00000E+000	2.58993E-001	0.00000E+000	7	...........	0
	770	77.1	2.70057E-001	3.13539E-006	0.00000E+000	2.69993E-001	0.00000E+000	7	...........	0
	781	78.2	2.81068E-001	3.04370E-006	0.00000E+000	2.80993E-001	0.00000E+000	7	...........	0
	792	79.3	2.92179E-001	3.14706E-006	0.00000E+000	2.91994E-001	0.00000E+000	7	...........	0
	803	80.4	3.03090E-001	3.21308E-006	0.00000E+000	3.02994E-001	0.00000E+000	7	...........	0
	814	81.5	3.14101E-001	3.21841E-006	0.00000E+000	3.13995E-001	0.00000E+000	7	...........	0
	825	82.6	3.25112E-001	3.43680E-006	0.00000E+000	3.24995E-001	0.00000E+000	7	...........	0
	836	83.7	3.36023E-001	3.34011E-006	0.00000E+000	3.35996E-001	0.00000E+000	7	...........	0
	847	84.8	3.47034E-001	3.42413E-006	0.00000E+000	3.46996E-001	0.00000E+000	7	...........	0
	858	85.9	3.58044E-001	3.34045E-006	0.00000E+000	3.57997E-001	0.00000E+000	7	...........	0
	869	87	3.69156E-001	3.16673E-006	0.00000E+000	3.68997E-001	0.00000E+000	7	...........	0
	880	88.1	3.80066E-001	3.14272E-006	0.00000E+000	3.79997E-001	0.00000E+000	7	...........	0
	891	89.2	3.91177E-001	2.84264E-006	0.00000E+000	3.90998E-001	0.00000E+000	7	...........	0
	902	90.3	4.02088E-001	2.63192E-006	0.00000E+000	4.01998E-001	0.00000E+000	7	...........	0
	913	91.4	4.13199E-001	2.62592E-006	0.00000E+000	4.12999E-001	0.00000E+000	7	...........	0
	924	92.5	4.24110E-001	2.70094E-006	0.00000E+000	4.23999E-001	0.00000E+000	7	...........	0
	935	93.6	4.35121E-001	2.62792E-006	0.00000E+000	4.35000E-001	0.00000E+000	7	...........	0
	946	94.7	4.46232E-001	2.61391E-006	0.00000E+000	4.46000E-001	0.00000E+000	7	...........	0
	957	95.8	4.57143E-001	2.63325E-006	0.00000E+000	4.57001E-001	0.00000E+000	7	...........	0
	968	96.9	4.68054E-001	2.78896E-006	0.00000E+000	4.68001E-001	0.00000E+000	7	...........	0
	979	98	4.79165E-001	3.06470E-006	0.00000E+000	4.79002E-001	0.00000E+000	7	...........	0
	990	99.1	4.90076E-001	3.42547E-006	0.00000E+000	4.90002E-001	0.00000E+000	7	...........	0
	1001	100.2	5.01087E-001	3.81391E-006	0.00000E+000	5.01002E-001	0.00000E+000	7	...........	0
	1012	101.3	5.12098E-001	4.25536E-006	0.00000E+000	5.12003E-001	0.00000E+000	7	...........	0
	1023	102.4	5.23109E-001	4.90788E-006	0.00000E+000	5.23003E-001	0.00000E+000	7	...........	0
	1034	103.5	5.34120E-001	5.80245E-006	0.00000E+000	5.34004E-001	0.00000E+000	7	...........	0
	1045	104.6	5.45131E-001	6.79439E-006	0.00000E+000	5.45004E-001	0.00000E+000	7	...........	0
	1056	105.7	5.56142E-001	7.85202E-006	0.00000E+000	5.56005E-001	0.00000E+000	7	...........	0
	1067	106.8	5.67052E-001	9.18258E-006	0.00000E+000	5.67005E-001	0.00000E+000	8	...........	0
	1078	107.9	5.78063E-001	1.09227E-005	0.00000E+000	5.78006E-001	0.00000E+000	8	...........	0
	1089	109	5.89175E-001	1.29962E-005	0.00000E+000	5.89006E-001	0.00000E+000	8	...........	0
	1100	110.1	6.00186E-001	1.56364E-005	0.00000E+000	6.00006E-001	0.00000E+000	8	...........	0

File: ZFO_h400_dark.DTA
EXPLAIN
TAG	LSV
TITLE	LABEL	Linear Sweep Voltammetry	Test &Identifier
DATE	LABEL	7/5/2024	Date
TIME	LABEL	16:53:29	Time
NOTES	NOTES	1	&Notes...

PSTAT	PSTAT	L3FNano	Potentiostat
VINIT	POTEN	-5.00000E-001	F	&Initial E (V)
VFINAL	POTEN	6.00000E-001	F	&Final E (V)
SCANRATE	QUANT	9.99998E+000	&Scan Rate (mV/s)
STEPSIZE	QUANT	1.00000E+000	St&ep Size (mV)
IMODE	SELECTOR	0	I/E Range &Mode
IRANGE	QUANT	1.00000E+001	&Max Current (mA)
AREA	QUANT	1.00000E+000	Electrode &Area (cm^2)
ELECTRODETYPE	SELECTOR	0	Electrode Type
STRIPPING	TOGGLE	F	Used for Stripping
POLARITY	TOGGLE	F	Signal Polarity
CONDIT	TWOPARAM	F	1.50000E+001	0.00000E+000	Conditionin&g	Time(s)	E(V)
DELAY	TWOPARAM	F	3.00000E+001	0.00000E+000	Init. De&lay	Time(s)	Stab.(mV/s)
EQDELAY	QUANT	5.00000E+000	Equil. &Time (s)
IRCOMP	SELECTOR	0	IRCom&p
PFCOR	QUANT	5.00000E+001	PF Corr. (ohm)
SAMPLINGMODE	SELECTOR	0	Sampling &Mode
EOC	QUANT	0	Open Circuit (V)
PSTATMODEL	IQUANT	48	Pstat Model
PSTATSECTION	LABEL	IFC1000-07082	Pstat Section
PSTATSERIALNO	LABEL	07082	Pstat Serial Number
CTRLMODE	IQUANT	1	Control Mode
IESTAB	IQUANT	2	I/E Stability
CASPEED	IQUANT	2	Control Amp Speed
CONVENTION	IQUANT	1	Current Convention
ICHRANGE	IQUANT	2	Ich Range
ICHRANGEMODE	TOGGLE	F	Ich Auto Range
ICHOFFSETENABLE	TOGGLE	F	Ich Offset Enable
ICHOFFSET	QUANT	0	Ich Offset (V)
ICHFILTER	IQUANT	3	Ich Filter
VCHRANGE	IQUANT	2	Vch Range
VCHRANGEMODE	TOGGLE	T	Vch Auto Range
VCHOFFSETENABLE	TOGGLE	F	Vch Offset Enable
VCHOFFSET	QUANT	0	Vch Offset (V)
VCHFILTER	IQUANT	3	Vch Filter
IERANGELOWERLIMIT	IQUANT	4	I/E Range Lower Limit
IERANGEMODE	TOGGLE	T	I/E AutoRange
IERANGE	IQUANT	11	I/E Range
ACHSELECT	IQUANT	4	Ach Select
CABLEID	IQUANT	14	Cable ID
DCCALDATE	LABEL	7/3/2024	DC Calibration Date
ACCALDATE	LABEL	7/3/2024	AC Calibration Date
FRAMEWORKVERSION	QUANT	6.24	Framework Version
INSTRUMENTVERSION	LABEL	3.28	Instrument Version
CURVE	TABLE	1101
	Pt	T	Vf	Im	Vu	Sig	Ach	IERange	Over	Cycle
	#	s	V vs. Ref.	A	V	V	V	#	bits	#
	0	0.1	-5.00110E-001	-2.46808E-005	0.00000E+000	-4.99988E-001	0.00000E+000	11	...........	0
	11	1.2	-4.88999E-001	-2.31930E-005	0.00000E+000	-4.88988E-001	0.00000E+000	8	...........	0
	22	2.3	-4.77988E-001	-1.92294E-005	0.00000E+000	-4.77988E-001	0.00000E+000	8	...........	0
	33	3.4	-4.66977E-001	-1.61325E-005	0.00000E+000	-4.66987E-001	0.00000E+000	8	...........	0
	44	4.5	-4.56066E-001	-1.34990E-005	0.00000E+000	-4.55987E-001	0.00000E+000	8	...........	0
	55	5.6	-4.45055E-001	-1.11222E-005	0.00000E+000	-4.44986E-001	0.00000E+000	8	...........	0
	66	6.7	-4.33944E-001	-9.25204E-006	0.00000E+000	-4.33986E-001	0.00000E+000	8	...........	0
	77	7.8	-4.23033E-001	-7.37083E-006	0.00000E+000	-4.22985E-001	0.00000E+000	7	...........	0
	88	8.9	-4.12122E-001	-6.03513E-006	0.00000E+000	-4.11985E-001	0.00000E+000	7	...........	0
	99	10	-4.01011E-001	-4.83413E-006	0.00000E+000	-4.00984E-001	0.00000E+000	7	...........	0
	110	11.1	-3.90000E-001	-3.76551E-006	0.00000E+000	-3.89984E-001	0.00000E+000	7	...........	0
	121	12.2	-3.78989E-001	-2.90394E-006	0.00000E+000	-3.78984E-001	0.00000E+000	7	...........	0
	132	13.3	-3.67978E-001	-2.18074E-006	0.00000E+000	-3.67983E-001	0.00000E+000	7	...........	0
	143	14.4	-3.56967E-001	-1.62825E-006	0.00000E+000	-3.56983E-001	0.00000E+000	7	...........	0
	154	15.5	-3.46056E-001	-1.09911E-006	0.00000E+000	-3.45982E-001	0.00000E+000	7	...........	0
	165	16.6	-3.35045E-001	-6.39982E-007	0.00000E+000	-3.34982E-001	0.00000E+000	7	...........	0
	176	17.7	-3.24034E-001	-3.10891E-007	0.00000E+000	-3.23981E-001	0.00000E+000	7	...........	0
	187	18.8	-3.13023E-001	-4.31511E-008	0.00000E+000	-3.12981E-001	0.00000E+000	7	...........	0
	198	19.9	-3.02013E-001	2.43261E-007	0.00000E+000	-3.01980E-001	0.00000E+000	7	...........	0
	209	21	-2.91002E-001	4.26978E-007	0.00000E+000	-2.90980E-001	0.00000E+000	7	...........	0
	220	22.1	-2.79991E-001	5.75352E-007	0.00000E+000	-2.79979E-001	0.00000E+000	7	...........	0
	231	23.2	-2.68980E-001	7.11390E-007	0.00000E+000	-2.68979E-001	0.00000E+000	7	...........	0
	242	24.3	-2.58069E-001	8.03081E-007	0.00000E+000	-2.57979E-001	0.00000E+000	7	...........	0
	253	25.4	-2.46958E-001	9.66126E-007	0.00000E+000	-2.46978E-001	0.00000E+000	7	...........	0
	264	26.5	-2.35977E-001	1.01347E-006	0.00000E+000	-2.35978E-001	0.00000E+000	7	...........	0
	275	27.6	-2.24976E-001	1.14217E-006	0.00000E+000	-2.24977E-001	0.00000E+000	7	...........	0
	286	28.7	-2.13985E-001	1.12417E-006	0.00000E+000	-2.13977E-001	0.00000E+000	7	...........	0
	297	29.8	-2.02974E-001	1.17718E-006	0.00000E+000	-2.02976E-001	0.00000E+000	7	...........	0
	308	30.9	-1.91993E-001	1.23887E-006	0.00000E+000	-1.91976E-001	0.00000E+000	7	...........	0
	319	32	-1.80993E-001	1.29555E-006	0.00000E+000	-1.80975E-001	0.00000E+000	7	...........	0
	330	33.1	-1.69972E-001	1.26654E-006	0.00000E+000	-1.69975E-001	0.00000E+000	7	...........	0
	341	34.2	-1.59041E-001	1.26154E-006	0.00000E+000	-1.59025E-001	0.00000E+000	7	...........	0
	352	35.3	-1.48050E-001	1.33689E-006	0.00000E+000	-1.48024E-001	0.00000E+000	7	...........	0
	363	36.4	-1.37039E-001	1.46826E-006	0.00000E+000	-1.37024E-001	0.00000E+000	7	...........	0
	374	37.5	-1.26058E-001	1.61330E-006	0.00000E+000	-1.26023E-001	0.00000E+000	7	...........	0
	385	38.6	-1.15037E-001	1.67866E-006	0.00000E+000	-1.15023E-001	0.00000E+000	7	...........	0
	396	39.7	-1.04066E-001	1.76568E-006	0.00000E+000	-1.04022E-001	0.00000E+000	7	...........	0
	407	40.8	-9.30450E-002	1.89271E-006	0.00000E+000	-9.30219E-002	0.00000E+000	7	...........	0
	418	41.9	-8.20441E-002	2.05576E-006	0.00000E+000	-8.20214E-002	0.00000E+000	7	...........	0
	429	43	-7.10431E-002	2.10611E-006	0.00000E+000	-7.10210E-002	0.00000E+000	7	...........	0
	440	44.1	-6.00622E-002	2.29116E-006	0.00000E+000	-6.00205E-002	0.00000E+000	7	...........	0
	451	45.2	-4.90512E-002	2.38418E-006	0.00000E+000	-4.90201E-002	0.00000E+000	7	...........	0
	462	46.3	-3.80403E-002	2.55123E-006	0.00000E+000	-3.80196E-002	0.00000E+000	7	...........	0
	473	47.4	-2.70593E-002	2.66593E-006	0.00000E+000	-2.70192E-002	0.00000E+000	7	...........	0
	484	48.5	-1.60441E-002	2.82264E-006	0.00000E+000	-1.60187E-002	0.00000E+000	7	...........	0
	495	49.6	-5.04317E-003	3.00569E-006	0.00000E+000	-5.01826E-003	0.00000E+000	7	...........	0
	506	50.7	5.94477E-003	3.12772E-006	0.00000E+000	5.98219E-003	0.00000E+000	7	...........	0
	517	51.8	1.69387E-002	3.30977E-006	0.00000E+000	1.69826E-002	0.00000E+000	7	...........	0
	528	52.9	2.79755E-002	3.42880E-006	0.00000E+000	2.79831E-002	0.00000E+000	7	...........	0
	539	54	3.89664E-002	3.60318E-006	0.00000E+000	3.89835E-002	0.00000E+000	7	...........	0
	550	55.1	4.99673E-002	3.71421E-006	0.00000E+000	4.99840E-002	0.00000E+000	7	...........	0
	561	56.2	6.09583E-002	3.92594E-006	0.00000E+000	6.09844E-002	0.00000E+000	7	...........	0
	572	57.3	7.19692E-002	4.05597E-006	0.00000E+000	7.19849E-002	0.00000E+000	7	...........	0
	583	58.4	8.29702E-002	4.20902E-006	0.00000E+000	8.29853E-002	0.00000E+000	7	...........	0
	594	59.5	9.39711E-002	4.35639E-006	0.00000E+000	9.39858E-002	0.00000E+000	7	...........	0
	605	60.6	1.04942E-001	4.52910E-006	0.00000E+000	1.04986E-001	0.00000E+000	7	...........	0
	616	61.7	1.15963E-001	4.72883E-006	0.00000E+000	1.15987E-001	0.00000E+000	7	...........	0
	627	62.8	1.26954E-001	4.87453E-006	0.00000E+000	1.26987E-001	0.00000E+000	7	...........	0
[...]
	671	67.2	1.70928E-001	5.49770E-006	0.00000E+000	1.70989E-001	0.00000E+000	7	...........	0
	682	68.3	1.81949E-001	5.73244E-006	0.00000E+000	1.81989E-001	0.00000E+000	7	...........	0
	693	69.4	1.92950E-001	5.85180E-006	0.00000E+000	1.92990E-001	0.00000E+000	7	...........	0
	704	70.5	2.03931E-001	5.89015E-006	0.00000E+000	2.03990E-001	0.00000E+000	7	...........	0
	715	71.6	2.14932E-001	6.02952E-006	0.00000E+000	2.14991E-001	0.00000E+000	7	...........	0
	726	72.7	2.25933E-001	6.18623E-006	0.00000E+000	2.25991E-001	0.00000E+000	7	...........	0
	737	73.8	2.36923E-001	6.37895E-006	0.00000E+000	2.36992E-001	0.00000E+000	7	...........	0
	748	74.9	2.47924E-001	6.51165E-006	0.00000E+000	2.47992E-001	0.00000E+000	7	...........	0
	759	76	2.58915E-001	6.78072E-006	0.00000E+000	2.58993E-001	0.00000E+000	7	...........	0
	770	77.1	2.70157E-001	7.05280E-006	0.00000E+000	2.69993E-001	0.00000E+000	7	...........	0
	781	78.2	2.81068E-001	7.30587E-006	0.00000E+000	2.80993E-001	0.00000E+000	7	...........	0
	792	79.3	2.92179E-001	7.60928E-006	0.00000E+000	2.91994E-001	0.00000E+000	7	...........	0
	803	80.4	3.03090E-001	7.87369E-006	0.00000E+000	3.02994E-001	0.00000E+000	7	...........	0
	814	81.5	3.14101E-001	8.14143E-006	0.00000E+000	3.13995E-001	0.00000E+000	7	...........	0
	825	82.6	3.25212E-001	8.38783E-006	0.00000E+000	3.24995E-001	0.00000E+000	7	...........	0
	836	83.7	3.36223E-001	8.52387E-006	0.00000E+000	3.35996E-001	0.00000E+000	7	...........	0
	847	84.8	3.47134E-001	8.68425E-006	0.00000E+000	3.46996E-001	0.00000E+000	7	...........	0
	858	85.9	3.58145E-001	8.84129E-006	0.00000E+000	3.57997E-001	0.00000E+000	7	...........	0
	869	87	3.69156E-001	8.82922E-006	0.00000E+000	3.68997E-001	0.00000E+000	8	...........	0
	880	88.1	3.80267E-001	8.83922E-006	0.00000E+000	3.79997E-001	0.00000E+000	8	...........	0
	891	89.2	3.91177E-001	9.05257E-006	0.00000E+000	3.90998E-001	0.00000E+000	8	...........	0
	902	90.3	4.02188E-001	9.17258E-006	0.00000E+000	4.01998E-001	0.00000E+000	8	...........	0
	913	91.4	4.13099E-001	9.48594E-006	0.00000E+000	4.12999E-001	0.00000E+000	8	...........	0
	924	92.5	4.24210E-001	1.00026E-005	0.00000E+000	4.23999E-001	0.00000E+000	8	...........	0
	935	93.6	4.35221E-001	1.04993E-005	0.00000E+000	4.35000E-001	0.00000E+000	8	...........	0
	946	94.7	4.46232E-001	1.10794E-005	0.00000E+000	4.46000E-001	0.00000E+000	8	...........	0
	957	95.8	4.57243E-001	1.15427E-005	0.00000E+000	4.57001E-001	0.00000E+000	8	...........	0
	968	96.9	4.68254E-001	1.19428E-005	0.00000E+000	4.68001E-001	0.00000E+000	8	...........	0
	979	98	4.79165E-001	1.24028E-005	0.00000E+000	4.79002E-001	0.00000E+000	8	...........	0
	990	99.1	4.90176E-001	1.29195E-005	0.00000E+000	4.90002E-001	0.00000E+000	8	...........	0
	1001	100.2	5.01187E-001	1.34795E-005	0.00000E+000	5.01002E-001	0.00000E+000	8	...........	0
	1012	101.3	5.12198E-001	1.41729E-005	0.00000E+000	5.12003E-001	0.00000E+000	8	...........	0
	1023	102.4	5.23209E-001	1.50830E-005	0.00000E+000	5.23003E-001	0.00000E+000	8	...........	0
	1034	103.5	5.34220E-001	1.62664E-005	0.00000E+000	5.34004E-001	0.00000E+000	8	...........	0
	1045	104.6	5.45131E-001	1.75132E-005	0.00000E+000	5.45004E-001	0.00000E+000	8	...........	0
	1056	105.7	5.56142E-001	1.93100E-005	0.00000E+000	5.56005E-001	0.00000E+000	8	...........	0
	1067	106.8	5.67153E-001	2.13368E-005	0.00000E+000	5.67005E-001	0.00000E+000	8	...........	0
	1078	107.9	5.78264E-001	2.37336E-005	0.00000E+000	5.78006E-001	0.00000E+000	8	...........	0
	1089	109	5.89175E-001	2.65338E-005	0.00000E+000	5.89006E-001	0.00000E+000	8	...........	0
	1100	110.1	6.00286E-001	2.96973E-005	0.00000E+000	6.00006E-001	0.00000E+000	8	...........	0