Folder: DataAnalysis/LSV ZFO (part 14)

File: ZFO_h400_light_reator.DTA
EXPLAIN
TAG	LSV
TITLE	LABEL	Linear Sweep Voltammetry	Test &Identifier
DATE	LABEL	7/5/2024	Date
TIME	LABEL	17:31:35	Time
NOTES	NOTES	1	&Notes...

PSTAT	PSTAT	L3FNano	Potentiostat
VINIT	POTEN	-5.00000E-001	F	&Initial E (V)
VFINAL	POTEN	6.00000E-001	F	&Final E (V)
SCANRATE	QUANT	9.99998E+000	&Scan Rate (mV/s)
STEPSIZE	QUANT	1.00000E+000	St&ep Size (mV)
IMODE	SELECTOR	0	I/E Range &Mode
IRANGE	QUANT	1.00000E+001	&Max Current (mA)
AREA	QUANT	1.00000E+000	Electrode &Area (cm^2)
ELECTRODETYPE	SELECTOR	0	Electrode Type
STRIPPING	TOGGLE	F	Used for Stripping
POLARITY	TOGGLE	F	Signal Polarity
CONDIT	TWOPARAM	F	1.50000E+001	0.00000E+000	Conditionin&g	Time(s)	E(V)
DELAY	TWOPARAM	F	3.00000E+001	0.00000E+000	Init. De&lay	Time(s)	Stab.(mV/s)
EQDELAY	QUANT	5.00000E+000	Equil. &Time (s)
IRCOMP	SELECTOR	0	IRCom&p
PFCOR	QUANT	5.00000E+001	PF Corr. (ohm)
SAMPLINGMODE	SELECTOR	0	Sampling &Mode
EOC	QUANT	0	Open Circuit (V)
PSTATMODEL	IQUANT	48	Pstat Model
PSTATSECTION	LABEL	IFC1000-07082	Pstat Section
PSTATSERIALNO	LABEL	07082	Pstat Serial Number
CTRLMODE	IQUANT	1	Control Mode
IESTAB	IQUANT	2	I/E Stability
CASPEED	IQUANT	2	Control Amp Speed
CONVENTION	IQUANT	1	Current Convention
ICHRANGE	IQUANT	2	Ich Range
ICHRANGEMODE	TOGGLE	F	Ich Auto Range
ICHOFFSETENABLE	TOGGLE	F	Ich Offset Enable
ICHOFFSET	QUANT	0	Ich Offset (V)
ICHFILTER	IQUANT	3	Ich Filter
VCHRANGE	IQUANT	2	Vch Range
VCHRANGEMODE	TOGGLE	T	Vch Auto Range
VCHOFFSETENABLE	TOGGLE	F	Vch Offset Enable
VCHOFFSET	QUANT	0	Vch Offset (V)
VCHFILTER	IQUANT	3	Vch Filter
IERANGELOWERLIMIT	IQUANT	4	I/E Range Lower Limit
IERANGEMODE	TOGGLE	T	I/E AutoRange
IERANGE	IQUANT	11	I/E Range
ACHSELECT	IQUANT	4	Ach Select
CABLEID	IQUANT	14	Cable ID
DCCALDATE	LABEL	7/3/2024	DC Calibration Date
ACCALDATE	LABEL	7/3/2024	AC Calibration Date
FRAMEWORKVERSION	QUANT	6.24	Framework Version
INSTRUMENTVERSION	LABEL	3.28	Instrument Version
CURVE	TABLE	1101
	Pt	T	Vf	Im	Vu	Sig	Ach	IERange	Over	Cycle
	#	s	V vs. Ref.	A	V	V	V	#	bits	#
	0	0.1	-5.00110E-001	-1.13719E-005	0.00000E+000	-4.99988E-001	0.00000E+000	11	...........	0
	11	1.2	-4.89099E-001	-1.21789E-005	0.00000E+000	-4.88988E-001	0.00000E+000	8	...........	0
	22	2.3	-4.77988E-001	-1.00921E-005	0.00000E+000	-4.77988E-001	0.00000E+000	8	...........	0
	33	3.4	-4.66977E-001	-8.57866E-006	0.00000E+000	-4.66987E-001	0.00000E+000	8	...........	0
	44	4.5	-4.55966E-001	-7.69259E-006	0.00000E+000	-4.55987E-001	0.00000E+000	7	...........	0
	55	5.6	-4.45055E-001	-6.66230E-006	0.00000E+000	-4.44986E-001	0.00000E+000	7	...........	0
	66	6.7	-4.34044E-001	-5.64202E-006	0.00000E+000	-4.33986E-001	0.00000E+000	7	...........	0
	77	7.8	-4.23033E-001	-4.61307E-006	0.00000E+000	-4.22985E-001	0.00000E+000	7	...........	0
	88	8.9	-4.12022E-001	-4.06192E-006	0.00000E+000	-4.11985E-001	0.00000E+000	7	...........	0
	99	10	-4.01011E-001	-3.35539E-006	0.00000E+000	-4.00984E-001	0.00000E+000	7	...........	0
	110	11.1	-3.89900E-001	-2.71255E-006	0.00000E+000	-3.89984E-001	0.00000E+000	7	...........	0
	121	12.2	-3.78989E-001	-1.92300E-006	0.00000E+000	-3.78984E-001	0.00000E+000	7	...........	0
	132	13.3	-3.67878E-001	-1.32817E-006	0.00000E+000	-3.67983E-001	0.00000E+000	7	...........	0
	143	14.4	-3.57167E-001	-1.04376E-006	0.00000E+000	-3.56983E-001	0.00000E+000	7	...........	0
	154	15.5	-3.45956E-001	-6.13975E-007	0.00000E+000	-3.45982E-001	0.00000E+000	7	...........	0
	165	16.6	-3.35045E-001	-3.82911E-007	0.00000E+000	-3.34982E-001	0.00000E+000	7	...........	0
	176	17.7	-3.23934E-001	9.78876E-008	0.00000E+000	-3.23981E-001	0.00000E+000	7	...........	0
	187	18.8	-3.12923E-001	6.11029E-007	0.00000E+000	-3.12981E-001	0.00000E+000	7	...........	0
	198	19.9	-3.02013E-001	1.14051E-006	0.00000E+000	-3.01980E-001	0.00000E+000	7	...........	0
	209	21	-2.91002E-001	1.52628E-006	0.00000E+000	-2.90980E-001	0.00000E+000	7	...........	0
	220	22.1	-2.79991E-001	1.83370E-006	0.00000E+000	-2.79979E-001	0.00000E+000	7	...........	0
	231	23.2	-2.68980E-001	2.03242E-006	0.00000E+000	-2.68979E-001	0.00000E+000	7	...........	0
	242	24.3	-2.58069E-001	2.78829E-006	0.00000E+000	-2.57979E-001	0.00000E+000	7	...........	0
	253	25.4	-2.46958E-001	2.80797E-006	0.00000E+000	-2.46978E-001	0.00000E+000	7	...........	0
	264	26.5	-2.35957E-001	3.30810E-006	0.00000E+000	-2.35978E-001	0.00000E+000	7	...........	0
	275	27.6	-2.24966E-001	3.96962E-006	0.00000E+000	-2.24977E-001	0.00000E+000	7	...........	0
	286	28.7	-2.13985E-001	3.65820E-006	0.00000E+000	-2.13977E-001	0.00000E+000	7	...........	0
	297	29.8	-2.02964E-001	4.19935E-006	0.00000E+000	-2.02976E-001	0.00000E+000	7	...........	0
	308	30.9	-1.91973E-001	4.08265E-006	0.00000E+000	-1.91976E-001	0.00000E+000	7	...........	0
	319	32	-1.81023E-001	4.78484E-006	0.00000E+000	-1.80975E-001	0.00000E+000	7	...........	0
	330	33.1	-1.69992E-001	4.28004E-006	0.00000E+000	-1.69975E-001	0.00000E+000	7	...........	0
	341	34.2	-1.59061E-001	4.68281E-006	0.00000E+000	-1.59025E-001	0.00000E+000	7	...........	0
	352	35.3	-1.48100E-001	5.33533E-006	0.00000E+000	-1.48024E-001	0.00000E+000	7	...........	0
	363	36.4	-1.37099E-001	4.65914E-006	0.00000E+000	-1.37024E-001	0.00000E+000	7	...........	0
	374	37.5	-1.26088E-001	4.77984E-006	0.00000E+000	-1.26023E-001	0.00000E+000	7	...........	0
	385	38.6	-1.15077E-001	5.43602E-006	0.00000E+000	-1.15023E-001	0.00000E+000	7	...........	0
	396	39.7	-1.04096E-001	6.17289E-006	0.00000E+000	-1.04022E-001	0.00000E+000	7	...........	0
	407	40.8	-9.30750E-002	6.48164E-006	0.00000E+000	-9.30219E-002	0.00000E+000	7	...........	0
	418	41.9	-8.20641E-002	5.27598E-006	0.00000E+000	-8.20214E-002	0.00000E+000	7	...........	0
	429	43	-7.10931E-002	6.54399E-006	0.00000E+000	-7.10210E-002	0.00000E+000	7	...........	0
	440	44.1	-6.00922E-002	5.48770E-006	0.00000E+000	-6.00205E-002	0.00000E+000	7	...........	0
	451	45.2	-4.90712E-002	6.42396E-006	0.00000E+000	-4.90201E-002	0.00000E+000	7	...........	0
	462	46.3	-3.81303E-002	6.38361E-006	0.00000E+000	-3.80196E-002	0.00000E+000	7	...........	0
	473	47.4	-2.70893E-002	7.05613E-006	0.00000E+000	-2.70192E-002	0.00000E+000	7	...........	0
	484	48.5	-1.60771E-002	5.47803E-006	0.00000E+000	-1.60187E-002	0.00000E+000	7	...........	0
	495	49.6	-5.10723E-003	7.24052E-006	0.00000E+000	-5.01826E-003	0.00000E+000	7	...........	0
	506	50.7	5.92275E-003	5.79545E-006	0.00000E+000	5.98219E-003	0.00000E+000	7	...........	0
	517	51.8	1.69257E-002	7.22951E-006	0.00000E+000	1.69826E-002	0.00000E+000	7	...........	0
	528	52.9	2.79354E-002	6.28625E-006	0.00000E+000	2.79831E-002	0.00000E+000	7	...........	0
	539	54	3.89864E-002	7.65230E-006	0.00000E+000	3.89835E-002	0.00000E+000	7	...........	0
	550	55.1	4.99974E-002	6.85208E-006	0.00000E+000	4.99840E-002	0.00000E+000	7	...........	0
	561	56.2	6.09183E-002	9.30208E-006	0.00000E+000	6.09844E-002	0.00000E+000	7	...........	0
	572	57.3	7.19292E-002	6.79242E-006	0.00000E+000	7.19849E-002	0.00000E+000	8	...........	0
	583	58.4	8.29602E-002	9.04835E-006	0.00000E+000	8.29853E-002	0.00000E+000	7	.....h.....	0
	594	59.5	9.39411E-002	9.48260E-006	0.00000E+000	9.39858E-002	0.00000E+000	8	...........	0
	605	60.6	1.04912E-001	7.03910E-006	0.00000E+000	1.04986E-001	0.00000E+000	8	...........	0
	616	61.7	1.15943E-001	1.02860E-005	0.00000E+000	1.15987E-001	0.00000E+000	8	...........	0
	627	62.8	1.26924E-001	7.60247E-006	0.00000E+000	1.26987E-001	0.00000E+000	8	...........	0
[...]
	671	67.2	1.70958E-001	8.13918E-006	0.00000E+000	1.70989E-001	0.00000E+000	8	...........	0
	682	68.3	1.81929E-001	1.16461E-005	0.00000E+000	1.81989E-001	0.00000E+000	8	...........	0
	693	69.4	1.92960E-001	9.36593E-006	0.00000E+000	1.92990E-001	0.00000E+000	8	...........	0
	704	70.5	2.03921E-001	9.73262E-006	0.00000E+000	2.03990E-001	0.00000E+000	8	...........	0
	715	71.6	2.14902E-001	1.25628E-005	0.00000E+000	2.14991E-001	0.00000E+000	8	...........	0
	726	72.7	2.25963E-001	1.06427E-005	0.00000E+000	2.25991E-001	0.00000E+000	8	...........	0
	737	73.8	2.36923E-001	9.63261E-006	0.00000E+000	2.36992E-001	0.00000E+000	8	...........	0
	748	74.9	2.47904E-001	1.24628E-005	0.00000E+000	2.47992E-001	0.00000E+000	8	...........	0
	759	76	2.58855E-001	1.37762E-005	0.00000E+000	2.58993E-001	0.00000E+000	8	...........	0
	770	77.1	2.70057E-001	1.32862E-005	0.00000E+000	2.69993E-001	0.00000E+000	8	...........	0
	781	78.2	2.81168E-001	1.07727E-005	0.00000E+000	2.80993E-001	0.00000E+000	8	...........	0
	792	79.3	2.91979E-001	1.17161E-005	0.00000E+000	2.91994E-001	0.00000E+000	8	...........	0
	803	80.4	3.03090E-001	1.19761E-005	0.00000E+000	3.02994E-001	0.00000E+000	8	...........	0
	814	81.5	3.14001E-001	1.28528E-005	0.00000E+000	3.13995E-001	0.00000E+000	8	...........	0
	825	82.6	3.25112E-001	1.72598E-005	0.00000E+000	3.24995E-001	0.00000E+000	8	...........	0
	836	83.7	3.36023E-001	1.34795E-005	0.00000E+000	3.35996E-001	0.00000E+000	8	...........	0
	847	84.8	3.47234E-001	1.81565E-005	0.00000E+000	3.46996E-001	0.00000E+000	8	...........	0
	858	85.9	3.58044E-001	1.85266E-005	0.00000E+000	3.57997E-001	0.00000E+000	8	...........	0
	869	87	3.69156E-001	1.41663E-005	0.00000E+000	3.68997E-001	0.00000E+000	8	...........	0
	880	88.1	3.80167E-001	1.81332E-005	0.00000E+000	3.79997E-001	0.00000E+000	8	...........	0
	891	89.2	3.91077E-001	1.85432E-005	0.00000E+000	3.90998E-001	0.00000E+000	8	...........	0
	902	90.3	4.02088E-001	1.71598E-005	0.00000E+000	4.01998E-001	0.00000E+000	8	...........	0
	913	91.4	4.13199E-001	2.22368E-005	0.00000E+000	4.12999E-001	0.00000E+000	8	...........	0
	924	92.5	4.24110E-001	1.80332E-005	0.00000E+000	4.23999E-001	0.00000E+000	8	...........	0
	935	93.6	4.35021E-001	1.67531E-005	0.00000E+000	4.35000E-001	0.00000E+000	8	...........	0
	946	94.7	4.46132E-001	2.18335E-005	0.00000E+000	4.46000E-001	0.00000E+000	8	...........	0
	957	95.8	4.57243E-001	2.50337E-005	0.00000E+000	4.57001E-001	0.00000E+000	8	...........	0
	968	96.9	4.68154E-001	2.78005E-005	0.00000E+000	4.68001E-001	0.00000E+000	8	...........	0
	979	98	4.79165E-001	2.88540E-005	0.00000E+000	4.79002E-001	0.00000E+000	8	...........	0
	990	99.1	4.90176E-001	2.34302E-005	0.00000E+000	4.90002E-001	0.00000E+000	8	...........	0
	1001	100.2	5.01187E-001	2.37469E-005	0.00000E+000	5.01002E-001	0.00000E+000	8	...........	0
	1012	101.3	5.12198E-001	2.74405E-005	0.00000E+000	5.12003E-001	0.00000E+000	8	...........	0
	1023	102.4	5.23209E-001	3.59711E-005	0.00000E+000	5.23003E-001	0.00000E+000	8	...........	0
	1034	103.5	5.34220E-001	3.28442E-005	0.00000E+000	5.34004E-001	0.00000E+000	8	...........	0
	1045	104.6	5.45031E-001	4.30383E-005	0.00000E+000	5.45004E-001	0.00000E+000	8	...........	0
	1056	105.7	5.56142E-001	3.95447E-005	0.00000E+000	5.56005E-001	0.00000E+000	8	...........	0
	1067	106.8	5.67153E-001	5.35023E-005	0.00000E+000	5.67005E-001	0.00000E+000	8	...........	0
	1078	107.9	5.78164E-001	5.70159E-005	0.00000E+000	5.78006E-001	0.00000E+000	8	...........	0
	1089	109	5.89175E-001	6.03828E-005	0.00000E+000	5.89006E-001	0.00000E+000	8	...........	0
	1100	110.1	6.00186E-001	7.72673E-005	0.00000E+000	6.00006E-001	0.00000E+000	8	...........	0

File: ZFO_light.DTA
EXPLAIN
TAG	LSV
TITLE	LABEL	Linear Sweep Voltammetry	Test &Identifier
DATE	LABEL	7/5/2024	Date
TIME	LABEL	15:28:08	Time
NOTES	NOTES	1	&Notes...

PSTAT	PSTAT	L3FNano	Potentiostat
VINIT	POTEN	-5.00000E-001	F	&Initial E (V)
VFINAL	POTEN	6.00000E-001	F	&Final E (V)
SCANRATE	QUANT	9.99998E+000	&Scan Rate (mV/s)
STEPSIZE	QUANT	1.00000E+000	St&ep Size (mV)
IMODE	SELECTOR	0	I/E Range &Mode
IRANGE	QUANT	1.00000E+001	&Max Current (mA)
AREA	QUANT	1.00000E+000	Electrode &Area (cm^2)
ELECTRODETYPE	SELECTOR	0	Electrode Type
STRIPPING	TOGGLE	F	Used for Stripping
POLARITY	TOGGLE	F	Signal Polarity
CONDIT	TWOPARAM	F	1.50000E+001	0.00000E+000	Conditionin&g	Time(s)	E(V)
DELAY	TWOPARAM	F	3.00000E+001	0.00000E+000	Init. De&lay	Time(s)	Stab.(mV/s)
EQDELAY	QUANT	5.00000E+000	Equil. &Time (s)
IRCOMP	SELECTOR	0	IRCom&p
PFCOR	QUANT	5.00000E+001	PF Corr. (ohm)
SAMPLINGMODE	SELECTOR	0	Sampling &Mode
EOC	QUANT	0	Open Circuit (V)
PSTATMODEL	IQUANT	48	Pstat Model
PSTATSECTION	LABEL	IFC1000-07082	Pstat Section
PSTATSERIALNO	LABEL	07082	Pstat Serial Number
CTRLMODE	IQUANT	1	Control Mode
IESTAB	IQUANT	2	I/E Stability
CASPEED	IQUANT	2	Control Amp Speed
CONVENTION	IQUANT	1	Current Convention
ICHRANGE	IQUANT	2	Ich Range
ICHRANGEMODE	TOGGLE	F	Ich Auto Range
ICHOFFSETENABLE	TOGGLE	F	Ich Offset Enable
ICHOFFSET	QUANT	0	Ich Offset (V)
ICHFILTER	IQUANT	3	Ich Filter
VCHRANGE	IQUANT	2	Vch Range
VCHRANGEMODE	TOGGLE	T	Vch Auto Range
VCHOFFSETENABLE	TOGGLE	F	Vch Offset Enable
VCHOFFSET	QUANT	0	Vch Offset (V)
VCHFILTER	IQUANT	3	Vch Filter
IERANGELOWERLIMIT	IQUANT	4	I/E Range Lower Limit
IERANGEMODE	TOGGLE	T	I/E AutoRange
IERANGE	IQUANT	11	I/E Range
ACHSELECT	IQUANT	4	Ach Select
CABLEID	IQUANT	14	Cable ID
DCCALDATE	LABEL	7/3/2024	DC Calibration Date
ACCALDATE	LABEL	7/3/2024	AC Calibration Date
FRAMEWORKVERSION	QUANT	6.24	Framework Version
INSTRUMENTVERSION	LABEL	3.28	Instrument Version
CURVE	TABLE	1101
	Pt	T	Vf	Im	Vu	Sig	Ach	IERange	Over	Cycle
	#	s	V vs. Ref.	A	V	V	V	#	bits	#
	0	0.1	-5.00010E-001	1.93704E-006	0.00000E+000	-4.99988E-001	0.00000E+000	11	...........	0
	11	1.2	-4.88999E-001	-1.12612E-006	0.00000E+000	-4.88988E-001	0.00000E+000	7	...........	0
	22	2.3	-4.77988E-001	-7.23005E-007	0.00000E+000	-4.77988E-001	0.00000E+000	7	...........	0
	33	3.4	-4.67077E-001	-3.66907E-007	0.00000E+000	-4.66987E-001	0.00000E+000	7	...........	0
	44	4.5	-4.55866E-001	-2.18866E-007	0.00000E+000	-4.55987E-001	0.00000E+000	7	...........	0
	55	5.6	-4.44955E-001	-4.54851E-008	0.00000E+000	-4.44986E-001	0.00000E+000	7	...........	0
	66	6.7	-4.33944E-001	1.29896E-007	0.00000E+000	-4.33986E-001	0.00000E+000	7	...........	0
	77	7.8	-4.23033E-001	2.01249E-007	0.00000E+000	-4.22985E-001	0.00000E+000	7	...........	0
	88	8.9	-4.12022E-001	2.90607E-007	0.00000E+000	-4.11985E-001	0.00000E+000	7	...........	0
	99	10	-4.00911E-001	4.00971E-007	0.00000E+000	-4.00984E-001	0.00000E+000	7	...........	0
	110	11.1	-3.89900E-001	4.24311E-007	0.00000E+000	-3.89984E-001	0.00000E+000	7	...........	0
	121	12.2	-3.78889E-001	5.05333E-007	0.00000E+000	-3.78984E-001	0.00000E+000	7	...........	0
	132	13.3	-3.67978E-001	5.58681E-007	0.00000E+000	-3.67983E-001	0.00000E+000	7	...........	0
	143	14.4	-3.56967E-001	5.34674E-007	0.00000E+000	-3.56983E-001	0.00000E+000	7	...........	0
	154	15.5	-3.45856E-001	5.69017E-007	0.00000E+000	-3.45982E-001	0.00000E+000	7	...........	0
	165	16.6	-3.34945E-001	6.09361E-007	0.00000E+000	-3.34982E-001	0.00000E+000	7	...........	0
	176	17.7	-3.23934E-001	5.29673E-007	0.00000E+000	-3.23981E-001	0.00000E+000	7	...........	0
	187	18.8	-3.12823E-001	6.37703E-007	0.00000E+000	-3.12981E-001	0.00000E+000	7	...........	0
	198	19.9	-3.02013E-001	6.49373E-007	0.00000E+000	-3.01980E-001	0.00000E+000	7	...........	0
	209	21	-2.91002E-001	6.70045E-007	0.00000E+000	-2.90980E-001	0.00000E+000	7	...........	0
	220	22.1	-2.79890E-001	7.13390E-007	0.00000E+000	-2.79979E-001	0.00000E+000	7	...........	0
	231	23.2	-2.68880E-001	7.28061E-007	0.00000E+000	-2.68979E-001	0.00000E+000	7	...........	0
	242	24.3	-2.57969E-001	7.72406E-007	0.00000E+000	-2.57979E-001	0.00000E+000	7	...........	0
	253	25.4	-2.46858E-001	7.96413E-007	0.00000E+000	-2.46978E-001	0.00000E+000	7	...........	0
	264	26.5	-2.35907E-001	7.69405E-007	0.00000E+000	-2.35978E-001	0.00000E+000	7	...........	0
	275	27.6	-2.24916E-001	8.02415E-007	0.00000E+000	-2.24977E-001	0.00000E+000	7	...........	0
	286	28.7	-2.13885E-001	8.55762E-007	0.00000E+000	-2.13977E-001	0.00000E+000	7	...........	0
	297	29.8	-2.02904E-001	9.13778E-007	0.00000E+000	-2.02976E-001	0.00000E+000	7	...........	0
	308	30.9	-1.91913E-001	8.84104E-007	0.00000E+000	-1.91976E-001	0.00000E+000	7	...........	0
	319	32	-1.80922E-001	8.89772E-007	0.00000E+000	-1.80975E-001	0.00000E+000	7	...........	0
	330	33.1	-1.69891E-001	9.29783E-007	0.00000E+000	-1.69975E-001	0.00000E+000	7	...........	0
	341	34.2	-1.58961E-001	8.98441E-007	0.00000E+000	-1.59025E-001	0.00000E+000	7	...........	0
	352	35.3	-1.47980E-001	9.84131E-007	0.00000E+000	-1.48024E-001	0.00000E+000	7	...........	0
	363	36.4	-1.36989E-001	1.06249E-006	0.00000E+000	-1.37024E-001	0.00000E+000	7	...........	0
	374	37.5	-1.26008E-001	1.03048E-006	0.00000E+000	-1.26023E-001	0.00000E+000	7	...........	0
	385	38.6	-1.14997E-001	1.04882E-006	0.00000E+000	-1.15023E-001	0.00000E+000	7	...........	0
	396	39.7	-1.03996E-001	1.05715E-006	0.00000E+000	-1.04022E-001	0.00000E+000	7	...........	0
	407	40.8	-9.29749E-002	1.04915E-006	0.00000E+000	-9.30219E-002	0.00000E+000	7	...........	0
	418	41.9	-8.19940E-002	1.16618E-006	0.00000E+000	-8.20214E-002	0.00000E+000	7	...........	0
	429	43	-7.09730E-002	1.34623E-006	0.00000E+000	-7.10210E-002	0.00000E+000	7	...........	0
	440	44.1	-5.99921E-002	1.34656E-006	0.00000E+000	-6.00205E-002	0.00000E+000	7	...........	0
	451	45.2	-4.89811E-002	1.36257E-006	0.00000E+000	-4.90201E-002	0.00000E+000	7	...........	0
	462	46.3	-3.79902E-002	1.50061E-006	0.00000E+000	-3.80196E-002	0.00000E+000	7	...........	0
	473	47.4	-2.69792E-002	1.46026E-006	0.00000E+000	-2.70192E-002	0.00000E+000	7	...........	0
	484	48.5	-1.59690E-002	1.58763E-006	0.00000E+000	-1.60187E-002	0.00000E+000	7	...........	0
	495	49.6	-5.00112E-003	1.87504E-006	0.00000E+000	-5.01826E-003	0.00000E+000	7	...........	0
	506	50.7	6.00983E-003	1.76001E-006	0.00000E+000	5.98219E-003	0.00000E+000	7	...........	0
	517	51.8	1.70078E-002	1.81736E-006	0.00000E+000	1.69826E-002	0.00000E+000	7	...........	0
	528	52.9	2.80255E-002	1.82370E-006	0.00000E+000	2.79831E-002	0.00000E+000	7	...........	0
	539	54	3.90265E-002	2.01942E-006	0.00000E+000	3.89835E-002	0.00000E+000	7	...........	0
	550	55.1	4.99874E-002	2.16946E-006	0.00000E+000	4.99840E-002	0.00000E+000	7	...........	0
	561	56.2	6.10384E-002	2.08377E-006	0.00000E+000	6.09844E-002	0.00000E+000	7	...........	0
	572	57.3	7.20093E-002	2.33083E-006	0.00000E+000	7.19849E-002	0.00000E+000	7	...........	0
	583	58.4	8.30203E-002	2.68660E-006	0.00000E+000	8.29853E-002	0.00000E+000	7	...........	0
	594	59.5	9.40012E-002	2.65392E-006	0.00000E+000	9.39858E-002	0.00000E+000	7	...........	0
	605	60.6	1.05012E-001	2.62858E-006	0.00000E+000	1.04986E-001	0.00000E+000	7	...........	0
	616	61.7	1.15993E-001	2.60058E-006	0.00000E+000	1.15987E-001	0.00000E+000	7	...........	0
	627	62.8	1.26994E-001	2.92100E-006	0.00000E+000	1.26987E-001	0.00000E+000	7	...........	0
[...]
	671	67.2	1.71008E-001	3.52750E-006	0.00000E+000	1.70989E-001	0.00000E+000	7	...........	0
	682	68.3	1.82029E-001	3.30410E-006	0.00000E+000	1.81989E-001	0.00000E+000	7	...........	0
	693	69.4	1.93020E-001	3.77256E-006	0.00000E+000	1.92990E-001	0.00000E+000	7	...........	0
	704	70.5	2.04011E-001	3.45148E-006	0.00000E+000	2.03990E-001	0.00000E+000	7	...........	0
	715	71.6	2.15002E-001	3.95128E-006	0.00000E+000	2.14991E-001	0.00000E+000	7	...........	0
	726	72.7	2.25993E-001	4.34906E-006	0.00000E+000	2.25991E-001	0.00000E+000	7	...........	0
	737	73.8	2.36994E-001	3.94028E-006	0.00000E+000	2.36992E-001	0.00000E+000	7	...........	0
	748	74.9	2.47994E-001	4.53877E-006	0.00000E+000	2.47992E-001	0.00000E+000	7	...........	0
	759	76	2.58935E-001	4.34906E-006	0.00000E+000	2.58993E-001	0.00000E+000	7	...........	0
	770	77.1	2.70157E-001	4.62747E-006	0.00000E+000	2.69993E-001	0.00000E+000	7	...........	0
	781	78.2	2.81068E-001	4.74583E-006	0.00000E+000	2.80993E-001	0.00000E+000	7	...........	0
	792	79.3	2.92179E-001	4.81318E-006	0.00000E+000	2.91994E-001	0.00000E+000	7	...........	0
	803	80.4	3.03190E-001	5.01857E-006	0.00000E+000	3.02994E-001	0.00000E+000	7	...........	0
	814	81.5	3.14101E-001	5.20896E-006	0.00000E+000	3.13995E-001	0.00000E+000	7	...........	0
	825	82.6	3.25112E-001	5.38601E-006	0.00000E+000	3.24995E-001	0.00000E+000	7	...........	0
	836	83.7	3.36223E-001	5.94383E-006	0.00000E+000	3.35996E-001	0.00000E+000	7	...........	0
	847	84.8	3.47034E-001	5.70209E-006	0.00000E+000	3.46996E-001	0.00000E+000	7	...........	0
	858	85.9	3.58145E-001	5.69909E-006	0.00000E+000	3.57997E-001	0.00000E+000	7	...........	0
	869	87	3.69156E-001	6.39829E-006	0.00000E+000	3.68997E-001	0.00000E+000	7	...........	0
	880	88.1	3.80167E-001	6.37361E-006	0.00000E+000	3.79997E-001	0.00000E+000	7	...........	0
	891	89.2	3.91177E-001	6.91576E-006	0.00000E+000	3.90998E-001	0.00000E+000	7	...........	0
	902	90.3	4.02289E-001	6.58600E-006	0.00000E+000	4.01998E-001	0.00000E+000	7	...........	0
	913	91.4	4.13199E-001	7.54393E-006	0.00000E+000	4.12999E-001	0.00000E+000	7	...........	0
	924	92.5	4.24210E-001	8.01406E-006	0.00000E+000	4.23999E-001	0.00000E+000	7	...........	0
	935	93.6	4.35121E-001	7.63829E-006	0.00000E+000	4.35000E-001	0.00000E+000	7	...........	0
	946	94.7	4.46132E-001	8.41217E-006	0.00000E+000	4.46000E-001	0.00000E+000	7	...........	0
	957	95.8	4.57243E-001	8.07008E-006	0.00000E+000	4.57001E-001	0.00000E+000	7	...........	0
	968	96.9	4.68154E-001	8.71588E-006	0.00000E+000	4.68001E-001	0.00000E+000	8	...........	0
	979	98	4.79265E-001	9.06257E-006	0.00000E+000	4.79002E-001	0.00000E+000	8	...........	0
	990	99.1	4.90176E-001	8.79922E-006	0.00000E+000	4.90002E-001	0.00000E+000	8	...........	0
	1001	100.2	5.01187E-001	9.14591E-006	0.00000E+000	5.01002E-001	0.00000E+000	8	...........	0
	1012	101.3	5.12198E-001	1.02127E-005	0.00000E+000	5.12003E-001	0.00000E+000	8	...........	0
	1023	102.4	5.23209E-001	1.03493E-005	0.00000E+000	5.23003E-001	0.00000E+000	8	...........	0
	1034	103.5	5.34220E-001	1.02993E-005	0.00000E+000	5.34004E-001	0.00000E+000	8	...........	0
	1045	104.6	5.45131E-001	1.10960E-005	0.00000E+000	5.45004E-001	0.00000E+000	8	...........	0
	1056	105.7	5.56142E-001	1.14861E-005	0.00000E+000	5.56005E-001	0.00000E+000	8	...........	0
	1067	106.8	5.67253E-001	1.11894E-005	0.00000E+000	5.67005E-001	0.00000E+000	8	...........	0
	1078	107.9	5.78164E-001	1.26695E-005	0.00000E+000	5.78006E-001	0.00000E+000	8	...........	0
	1089	109	5.89175E-001	1.29728E-005	0.00000E+000	5.89006E-001	0.00000E+000	8	...........	0
	1100	110.1	6.00286E-001	1.23861E-005	0.00000E+000	6.00006E-001	0.00000E+000	8	...........	0