Folder: DataAnalysis/LSV ZFO (part 3)

File: ZFO_dark_reator4.DTA
EXPLAIN
TAG	LSV
TITLE	LABEL	Linear Sweep Voltammetry	Test &Identifier
DATE	LABEL	7/5/2024	Date
TIME	LABEL	18:40:08	Time
NOTES	NOTES	1	&Notes...

PSTAT	PSTAT	L3FNano	Potentiostat
VINIT	POTEN	-5.00000E-001	F	&Initial E (V)
VFINAL	POTEN	6.00000E-001	F	&Final E (V)
SCANRATE	QUANT	9.99998E+000	&Scan Rate (mV/s)
STEPSIZE	QUANT	1.00000E+000	St&ep Size (mV)
IMODE	SELECTOR	0	I/E Range &Mode
IRANGE	QUANT	1.00000E+001	&Max Current (mA)
AREA	QUANT	1.00000E+000	Electrode &Area (cm^2)
ELECTRODETYPE	SELECTOR	0	Electrode Type
STRIPPING	TOGGLE	F	Used for Stripping
POLARITY	TOGGLE	F	Signal Polarity
CONDIT	TWOPARAM	F	1.50000E+001	0.00000E+000	Conditionin&g	Time(s)	E(V)
DELAY	TWOPARAM	F	3.00000E+001	0.00000E+000	Init. De&lay	Time(s)	Stab.(mV/s)
EQDELAY	QUANT	5.00000E+000	Equil. &Time (s)
IRCOMP	SELECTOR	0	IRCom&p
PFCOR	QUANT	5.00000E+001	PF Corr. (ohm)
SAMPLINGMODE	SELECTOR	0	Sampling &Mode
EOC	QUANT	0	Open Circuit (V)
PSTATMODEL	IQUANT	48	Pstat Model
PSTATSECTION	LABEL	IFC1000-07082	Pstat Section
PSTATSERIALNO	LABEL	07082	Pstat Serial Number
CTRLMODE	IQUANT	1	Control Mode
IESTAB	IQUANT	2	I/E Stability
CASPEED	IQUANT	2	Control Amp Speed
CONVENTION	IQUANT	1	Current Convention
ICHRANGE	IQUANT	2	Ich Range
ICHRANGEMODE	TOGGLE	F	Ich Auto Range
ICHOFFSETENABLE	TOGGLE	F	Ich Offset Enable
ICHOFFSET	QUANT	0	Ich Offset (V)
ICHFILTER	IQUANT	3	Ich Filter
VCHRANGE	IQUANT	2	Vch Range
VCHRANGEMODE	TOGGLE	T	Vch Auto Range
VCHOFFSETENABLE	TOGGLE	F	Vch Offset Enable
VCHOFFSET	QUANT	0	Vch Offset (V)
VCHFILTER	IQUANT	3	Vch Filter
IERANGELOWERLIMIT	IQUANT	4	I/E Range Lower Limit
IERANGEMODE	TOGGLE	T	I/E AutoRange
IERANGE	IQUANT	11	I/E Range
ACHSELECT	IQUANT	4	Ach Select
CABLEID	IQUANT	14	Cable ID
DCCALDATE	LABEL	7/3/2024	DC Calibration Date
ACCALDATE	LABEL	7/3/2024	AC Calibration Date
FRAMEWORKVERSION	QUANT	6.24	Framework Version
INSTRUMENTVERSION	LABEL	3.28	Instrument Version
CURVE	TABLE	1101
	Pt	T	Vf	Im	Vu	Sig	Ach	IERange	Over	Cycle
	#	s	V vs. Ref.	A	V	V	V	#	bits	#
	0	0.1	-5.00010E-001	-1.39019E-006	0.00000E+000	-4.99988E-001	0.00000E+000	11	...........	0
	11	1.2	-4.89099E-001	-2.87193E-006	0.00000E+000	-4.88988E-001	0.00000E+000	7	...........	0
	22	2.3	-4.77988E-001	-2.05004E-006	0.00000E+000	-4.77988E-001	0.00000E+000	7	...........	0
	33	3.4	-4.66977E-001	-1.49288E-006	0.00000E+000	-4.66987E-001	0.00000E+000	7	...........	0
	44	4.5	-4.55966E-001	-1.07777E-006	0.00000E+000	-4.55987E-001	0.00000E+000	7	...........	0
	55	5.6	-4.44955E-001	-7.52013E-007	0.00000E+000	-4.44986E-001	0.00000E+000	7	...........	0
	66	6.7	-4.34044E-001	-5.16614E-007	0.00000E+000	-4.33986E-001	0.00000E+000	7	...........	0
	77	7.8	-4.23033E-001	-1.45846E-007	0.00000E+000	-4.22985E-001	0.00000E+000	7	...........	0
	88	8.9	-4.11922E-001	8.85517E-008	0.00000E+000	-4.11985E-001	0.00000E+000	7	...........	0
	99	10	-4.01111E-001	1.10224E-007	0.00000E+000	-4.00984E-001	0.00000E+000	7	...........	0
	110	11.1	-3.90000E-001	7.02133E-008	0.00000E+000	-3.89984E-001	0.00000E+000	7	...........	0
	121	12.2	-3.78989E-001	1.68654E-008	0.00000E+000	-3.78984E-001	0.00000E+000	7	...........	0
	132	13.3	-3.68078E-001	1.05223E-007	0.00000E+000	-3.67983E-001	0.00000E+000	7	...........	0
	143	14.4	-3.56967E-001	9.85545E-008	0.00000E+000	-3.56983E-001	0.00000E+000	7	...........	0
	154	15.5	-3.45956E-001	1.81991E-008	0.00000E+000	-3.45982E-001	0.00000E+000	7	...........	0
	165	16.6	-3.35045E-001	6.18777E-008	0.00000E+000	-3.34982E-001	0.00000E+000	7	...........	0
	176	17.7	-3.24135E-001	1.19439E-009	0.00000E+000	-3.23981E-001	0.00000E+000	7	...........	0
	187	18.8	-3.13023E-001	2.85352E-008	0.00000E+000	-3.12981E-001	0.00000E+000	7	...........	0
	198	19.9	-3.02013E-001	9.98882E-008	0.00000E+000	-3.01980E-001	0.00000E+000	7	...........	0
	209	21	-2.91002E-001	4.68736E-008	0.00000E+000	-2.90980E-001	0.00000E+000	7	...........	0
	220	22.1	-2.79991E-001	1.40899E-007	0.00000E+000	-2.79979E-001	0.00000E+000	7	...........	0
	231	23.2	-2.68980E-001	1.11558E-007	0.00000E+000	-2.68979E-001	0.00000E+000	7	...........	0
	242	24.3	-2.58169E-001	1.45901E-007	0.00000E+000	-2.57979E-001	0.00000E+000	7	...........	0
	253	25.4	-2.47058E-001	1.75242E-007	0.00000E+000	-2.46978E-001	0.00000E+000	7	...........	0
	264	26.5	-2.35927E-001	1.95248E-007	0.00000E+000	-2.35978E-001	0.00000E+000	7	...........	0
	275	27.6	-2.24966E-001	2.67601E-007	0.00000E+000	-2.24977E-001	0.00000E+000	7	...........	0
	286	28.7	-2.13985E-001	3.01944E-007	0.00000E+000	-2.13977E-001	0.00000E+000	7	...........	0
	297	29.8	-2.02954E-001	2.54264E-007	0.00000E+000	-2.02976E-001	0.00000E+000	7	...........	0
	308	30.9	-1.91943E-001	2.32925E-007	0.00000E+000	-1.91976E-001	0.00000E+000	7	...........	0
	319	32	-1.80983E-001	2.42594E-007	0.00000E+000	-1.80975E-001	0.00000E+000	7	...........	0
	330	33.1	-1.69972E-001	2.63266E-007	0.00000E+000	-1.69975E-001	0.00000E+000	7	...........	0
	341	34.2	-1.59041E-001	2.11586E-007	0.00000E+000	-1.59025E-001	0.00000E+000	7	...........	0
	352	35.3	-1.48050E-001	1.93247E-007	0.00000E+000	-1.48024E-001	0.00000E+000	7	...........	0
	363	36.4	-1.37029E-001	1.66907E-007	0.00000E+000	-1.37024E-001	0.00000E+000	7	...........	0
	374	37.5	-1.26088E-001	2.07251E-007	0.00000E+000	-1.26023E-001	0.00000E+000	7	...........	0
	385	38.6	-1.15007E-001	2.31591E-007	0.00000E+000	-1.15023E-001	0.00000E+000	7	...........	0
	396	39.7	-1.04066E-001	2.36259E-007	0.00000E+000	-1.04022E-001	0.00000E+000	7	...........	0
	407	40.8	-9.30350E-002	2.40593E-007	0.00000E+000	-9.30219E-002	0.00000E+000	7	...........	0
	418	41.9	-8.20841E-002	2.96609E-007	0.00000E+000	-8.20214E-002	0.00000E+000	7	...........	0
	429	43	-7.10631E-002	3.87300E-007	0.00000E+000	-7.10210E-002	0.00000E+000	7	...........	0
	440	44.1	-6.00321E-002	4.71324E-007	0.00000E+000	-6.00205E-002	0.00000E+000	7	...........	0
	451	45.2	-4.90512E-002	5.04666E-007	0.00000E+000	-4.90201E-002	0.00000E+000	7	...........	0
	462	46.3	-3.80202E-002	5.37675E-007	0.00000E+000	-3.80196E-002	0.00000E+000	7	...........	0
	473	47.4	-2.70093E-002	6.22699E-007	0.00000E+000	-2.70192E-002	0.00000E+000	7	...........	0
	484	48.5	-1.60671E-002	7.27727E-007	0.00000E+000	-1.60187E-002	0.00000E+000	7	...........	0
	495	49.6	-5.03115E-003	7.52734E-007	0.00000E+000	-5.01826E-003	0.00000E+000	7	...........	0
	506	50.7	5.93676E-003	8.26088E-007	0.00000E+000	5.98219E-003	0.00000E+000	7	...........	0
	517	51.8	1.69507E-002	8.26088E-007	0.00000E+000	1.69826E-002	0.00000E+000	7	...........	0
	528	52.9	2.79655E-002	8.19419E-007	0.00000E+000	2.79831E-002	0.00000E+000	7	...........	0
	539	54	3.89864E-002	8.83437E-007	0.00000E+000	3.89835E-002	0.00000E+000	7	...........	0
	550	55.1	4.99974E-002	8.89438E-007	0.00000E+000	4.99840E-002	0.00000E+000	7	...........	0
	561	56.2	6.10083E-002	8.20753E-007	0.00000E+000	6.09844E-002	0.00000E+000	7	...........	0
	572	57.3	7.19793E-002	7.50067E-007	0.00000E+000	7.19849E-002	0.00000E+000	7	...........	0
	583	58.4	8.29702E-002	6.98053E-007	0.00000E+000	8.29853E-002	0.00000E+000	7	...........	0
	594	59.5	9.39711E-002	6.47705E-007	0.00000E+000	9.39858E-002	0.00000E+000	7	...........	0
	605	60.6	1.04992E-001	7.26060E-007	0.00000E+000	1.04986E-001	0.00000E+000	7	...........	0
	616	61.7	1.15973E-001	6.78380E-007	0.00000E+000	1.15987E-001	0.00000E+000	7	...........	0
	627	62.8	1.26964E-001	7.05054E-007	0.00000E+000	1.26987E-001	0.00000E+000	7	...........	0
[...]
	671	67.2	1.70928E-001	8.43426E-007	0.00000E+000	1.70989E-001	0.00000E+000	7	...........	0
	682	68.3	1.81979E-001	6.83382E-007	0.00000E+000	1.81989E-001	0.00000E+000	7	...........	0
	693	69.4	1.92910E-001	6.18697E-007	0.00000E+000	1.92990E-001	0.00000E+000	7	...........	0
	704	70.5	2.03921E-001	7.10723E-007	0.00000E+000	2.03990E-001	0.00000E+000	7	...........	0
	715	71.6	2.14972E-001	8.35424E-007	0.00000E+000	2.14991E-001	0.00000E+000	7	...........	0
	726	72.7	2.25933E-001	8.62098E-007	0.00000E+000	2.25991E-001	0.00000E+000	7	...........	0
	737	73.8	2.36913E-001	8.13084E-007	0.00000E+000	2.36992E-001	0.00000E+000	7	...........	0
	748	74.9	2.47904E-001	7.09389E-007	0.00000E+000	2.47992E-001	0.00000E+000	7	...........	0
	759	76	2.58885E-001	6.87716E-007	0.00000E+000	2.58993E-001	0.00000E+000	7	...........	0
	770	77.1	2.70057E-001	6.03360E-007	0.00000E+000	2.69993E-001	0.00000E+000	7	...........	0
	781	78.2	2.81068E-001	6.47039E-007	0.00000E+000	2.80993E-001	0.00000E+000	7	...........	0
	792	79.3	2.92179E-001	6.35035E-007	0.00000E+000	2.91994E-001	0.00000E+000	7	...........	0
	803	80.4	3.02990E-001	6.67711E-007	0.00000E+000	3.02994E-001	0.00000E+000	7	...........	0
	814	81.5	3.14101E-001	7.19058E-007	0.00000E+000	3.13995E-001	0.00000E+000	7	...........	0
	825	82.6	3.25012E-001	6.99053E-007	0.00000E+000	3.24995E-001	0.00000E+000	7	...........	0
	836	83.7	3.36123E-001	7.15391E-007	0.00000E+000	3.35996E-001	0.00000E+000	7	...........	0
	847	84.8	3.47134E-001	7.91411E-007	0.00000E+000	3.46996E-001	0.00000E+000	7	...........	0
	858	85.9	3.58044E-001	8.20419E-007	0.00000E+000	3.57997E-001	0.00000E+000	7	...........	0
	869	87	3.69055E-001	8.21086E-007	0.00000E+000	3.68997E-001	0.00000E+000	7	...........	0
	880	88.1	3.80066E-001	8.75435E-007	0.00000E+000	3.79997E-001	0.00000E+000	7	...........	0
	891	89.2	3.91077E-001	9.50122E-007	0.00000E+000	3.90998E-001	0.00000E+000	7	...........	0
	902	90.3	4.02088E-001	8.50428E-007	0.00000E+000	4.01998E-001	0.00000E+000	7	...........	0
	913	91.4	4.13099E-001	9.06443E-007	0.00000E+000	4.12999E-001	0.00000E+000	7	...........	0
	924	92.5	4.24110E-001	1.05348E-006	0.00000E+000	4.23999E-001	0.00000E+000	7	...........	0
	935	93.6	4.35121E-001	1.11650E-006	0.00000E+000	4.35000E-001	0.00000E+000	7	...........	0
	946	94.7	4.46132E-001	1.17652E-006	0.00000E+000	4.46000E-001	0.00000E+000	7	...........	0
	957	95.8	4.57143E-001	1.18519E-006	0.00000E+000	4.57001E-001	0.00000E+000	7	...........	0
	968	96.9	4.68154E-001	1.20986E-006	0.00000E+000	4.68001E-001	0.00000E+000	7	...........	0
	979	98	4.79165E-001	9.99135E-007	0.00000E+000	4.79002E-001	0.00000E+000	7	...........	0
	990	99.1	4.90176E-001	1.01347E-006	0.00000E+000	4.90002E-001	0.00000E+000	7	...........	0
	1001	100.2	5.01087E-001	8.57430E-007	0.00000E+000	5.01002E-001	0.00000E+000	7	...........	0
	1012	101.3	5.12098E-001	1.10150E-006	0.00000E+000	5.12003E-001	0.00000E+000	7	...........	0
	1023	102.4	5.23109E-001	1.31022E-006	0.00000E+000	5.23003E-001	0.00000E+000	7	...........	0
	1034	103.5	5.34220E-001	1.42692E-006	0.00000E+000	5.34004E-001	0.00000E+000	7	...........	0
	1045	104.6	5.45231E-001	1.45259E-006	0.00000E+000	5.45004E-001	0.00000E+000	7	...........	0
	1056	105.7	5.56042E-001	1.48527E-006	0.00000E+000	5.56005E-001	0.00000E+000	7	...........	0
	1067	106.8	5.67153E-001	1.81036E-006	0.00000E+000	5.67005E-001	0.00000E+000	7	...........	0
	1078	107.9	5.78164E-001	2.08977E-006	0.00000E+000	5.78006E-001	0.00000E+000	7	...........	0
	1089	109	5.89275E-001	2.35451E-006	0.00000E+000	5.89006E-001	0.00000E+000	7	...........	0
	1100	110.1	6.00186E-001	2.53322E-006	0.00000E+000	6.00006E-001	0.00000E+000	7	...........	0

File: ZFO_dark_reator.DTA
EXPLAIN
TAG	LSV
TITLE	LABEL	Linear Sweep Voltammetry	Test &Identifier
DATE	LABEL	7/5/2024	Date
TIME	LABEL	18:24:34	Time
NOTES	NOTES	1	&Notes...

PSTAT	PSTAT	L3FNano	Potentiostat
VINIT	POTEN	-5.00000E-001	F	&Initial E (V)
VFINAL	POTEN	6.00000E-001	F	&Final E (V)
SCANRATE	QUANT	9.99998E+000	&Scan Rate (mV/s)
STEPSIZE	QUANT	1.00000E+000	St&ep Size (mV)
IMODE	SELECTOR	0	I/E Range &Mode
IRANGE	QUANT	1.00000E+001	&Max Current (mA)
AREA	QUANT	1.00000E+000	Electrode &Area (cm^2)
ELECTRODETYPE	SELECTOR	0	Electrode Type
STRIPPING	TOGGLE	F	Used for Stripping
POLARITY	TOGGLE	F	Signal Polarity
CONDIT	TWOPARAM	F	1.50000E+001	0.00000E+000	Conditionin&g	Time(s)	E(V)
DELAY	TWOPARAM	F	3.00000E+001	0.00000E+000	Init. De&lay	Time(s)	Stab.(mV/s)
EQDELAY	QUANT	5.00000E+000	Equil. &Time (s)
IRCOMP	SELECTOR	0	IRCom&p
PFCOR	QUANT	5.00000E+001	PF Corr. (ohm)
SAMPLINGMODE	SELECTOR	0	Sampling &Mode
EOC	QUANT	0	Open Circuit (V)
PSTATMODEL	IQUANT	48	Pstat Model
PSTATSECTION	LABEL	IFC1000-07082	Pstat Section
PSTATSERIALNO	LABEL	07082	Pstat Serial Number
CTRLMODE	IQUANT	1	Control Mode
IESTAB	IQUANT	2	I/E Stability
CASPEED	IQUANT	2	Control Amp Speed
CONVENTION	IQUANT	1	Current Convention
ICHRANGE	IQUANT	2	Ich Range
ICHRANGEMODE	TOGGLE	F	Ich Auto Range
ICHOFFSETENABLE	TOGGLE	F	Ich Offset Enable
ICHOFFSET	QUANT	0	Ich Offset (V)
ICHFILTER	IQUANT	3	Ich Filter
VCHRANGE	IQUANT	2	Vch Range
VCHRANGEMODE	TOGGLE	T	Vch Auto Range
VCHOFFSETENABLE	TOGGLE	F	Vch Offset Enable
VCHOFFSET	QUANT	0	Vch Offset (V)
VCHFILTER	IQUANT	3	Vch Filter
IERANGELOWERLIMIT	IQUANT	4	I/E Range Lower Limit
IERANGEMODE	TOGGLE	T	I/E AutoRange
IERANGE	IQUANT	11	I/E Range
ACHSELECT	IQUANT	4	Ach Select
CABLEID	IQUANT	14	Cable ID
DCCALDATE	LABEL	7/3/2024	DC Calibration Date
ACCALDATE	LABEL	7/3/2024	AC Calibration Date
FRAMEWORKVERSION	QUANT	6.24	Framework Version
INSTRUMENTVERSION	LABEL	3.28	Instrument Version
CURVE	TABLE	1101
	Pt	T	Vf	Im	Vu	Sig	Ach	IERange	Over	Cycle
	#	s	V vs. Ref.	A	V	V	V	#	bits	#
	0	0.1	-5.00110E-001	-1.39019E-006	0.00000E+000	-4.99988E-001	0.00000E+000	11	...........	0
	11	1.2	-4.89099E-001	-1.77963E-006	0.00000E+000	-4.88988E-001	0.00000E+000	7	...........	0
	22	2.3	-4.78088E-001	-1.42353E-006	0.00000E+000	-4.77988E-001	0.00000E+000	7	...........	0
	33	3.4	-4.67077E-001	-1.52389E-006	0.00000E+000	-4.66987E-001	0.00000E+000	7	...........	0
	44	4.5	-4.56066E-001	-1.00842E-006	0.00000E+000	-4.55987E-001	0.00000E+000	7	...........	0
	55	5.6	-4.45055E-001	-8.67711E-007	0.00000E+000	-4.44986E-001	0.00000E+000	7	...........	0
	66	6.7	-4.34144E-001	-5.82633E-007	0.00000E+000	-4.33986E-001	0.00000E+000	7	...........	0
	77	7.8	-4.23033E-001	-4.15253E-007	0.00000E+000	-4.22985E-001	0.00000E+000	7	...........	0
	88	8.9	-4.12122E-001	-2.64545E-007	0.00000E+000	-4.11985E-001	0.00000E+000	7	...........	0
	99	10	-4.01011E-001	-4.30924E-007	0.00000E+000	-4.00984E-001	0.00000E+000	7	...........	0
	110	11.1	-3.90100E-001	-2.56543E-007	0.00000E+000	-3.89984E-001	0.00000E+000	7	...........	0
	121	12.2	-3.78989E-001	-2.44793E-008	0.00000E+000	-3.78984E-001	0.00000E+000	7	...........	0
	132	13.3	-3.68078E-001	-1.46513E-007	0.00000E+000	-3.67983E-001	0.00000E+000	7	...........	0
	143	14.4	-3.57167E-001	-1.52848E-007	0.00000E+000	-3.56983E-001	0.00000E+000	7	...........	0
	154	15.5	-3.46056E-001	-1.85857E-007	0.00000E+000	-3.45982E-001	0.00000E+000	7	...........	0
	165	16.6	-3.35045E-001	-9.91665E-008	0.00000E+000	-3.34982E-001	0.00000E+000	7	...........	0
	176	17.7	-3.24034E-001	-1.48180E-007	0.00000E+000	-3.23981E-001	0.00000E+000	7	...........	0
	187	18.8	-3.13023E-001	-3.04810E-008	0.00000E+000	-3.12981E-001	0.00000E+000	7	...........	0
	198	19.9	-3.02113E-001	1.39232E-007	0.00000E+000	-3.01980E-001	0.00000E+000	7	...........	0
	209	21	-2.91102E-001	-7.31594E-008	0.00000E+000	-2.90980E-001	0.00000E+000	7	...........	0
	220	22.1	-2.80091E-001	-3.94835E-008	0.00000E+000	-2.79979E-001	0.00000E+000	7	...........	0
	231	23.2	-2.68980E-001	1.58904E-007	0.00000E+000	-2.68979E-001	0.00000E+000	7	...........	0
	242	24.3	-2.58069E-001	-1.24173E-007	0.00000E+000	-2.57979E-001	0.00000E+000	7	...........	0
	253	25.4	-2.47058E-001	-6.24898E-008	0.00000E+000	-2.46978E-001	0.00000E+000	7	...........	0
	264	26.5	-2.36027E-001	1.61238E-007	0.00000E+000	-2.35978E-001	0.00000E+000	7	...........	0
	275	27.6	-2.25036E-001	3.12280E-007	0.00000E+000	-2.24977E-001	0.00000E+000	7	...........	0
	286	28.7	-2.14065E-001	5.86689E-007	0.00000E+000	-2.13977E-001	0.00000E+000	7	...........	0
	297	29.8	-2.03034E-001	4.31979E-007	0.00000E+000	-2.02976E-001	0.00000E+000	7	...........	0
	308	30.9	-1.92074E-001	5.37675E-007	0.00000E+000	-1.91976E-001	0.00000E+000	7	...........	0
	319	32	-1.81073E-001	4.28645E-007	0.00000E+000	-1.80975E-001	0.00000E+000	7	...........	0
	330	33.1	-1.70042E-001	5.86022E-007	0.00000E+000	-1.69975E-001	0.00000E+000	7	...........	0
	341	34.2	-1.59081E-001	3.24950E-007	0.00000E+000	-1.59025E-001	0.00000E+000	7	...........	0
	352	35.3	-1.48110E-001	4.27978E-007	0.00000E+000	-1.48024E-001	0.00000E+000	7	...........	0
	363	36.4	-1.37099E-001	5.52012E-007	0.00000E+000	-1.37024E-001	0.00000E+000	7	...........	0
	374	37.5	-1.26128E-001	7.81742E-007	0.00000E+000	-1.26023E-001	0.00000E+000	7	...........	0
	385	38.6	-1.15067E-001	4.71990E-007	0.00000E+000	-1.15023E-001	0.00000E+000	7	...........	0
	396	39.7	-1.04116E-001	6.96719E-007	0.00000E+000	-1.04022E-001	0.00000E+000	7	...........	0
	407	40.8	-9.31151E-002	7.67072E-007	0.00000E+000	-9.30219E-002	0.00000E+000	7	...........	0
	418	41.9	-8.21542E-002	7.30061E-007	0.00000E+000	-8.20214E-002	0.00000E+000	7	...........	0
	429	43	-7.10831E-002	1.03181E-006	0.00000E+000	-7.10210E-002	0.00000E+000	7	...........	0
	440	44.1	-6.01222E-002	7.48066E-007	0.00000E+000	-6.00205E-002	0.00000E+000	7	...........	0
	451	45.2	-4.91513E-002	5.18003E-007	0.00000E+000	-4.90201E-002	0.00000E+000	7	...........	0
	462	46.3	-3.80603E-002	9.50122E-007	0.00000E+000	-3.80196E-002	0.00000E+000	7	...........	0
	473	47.4	-2.71194E-002	1.10383E-006	0.00000E+000	-2.70192E-002	0.00000E+000	7	...........	0
	484	48.5	-1.60932E-002	9.00108E-007	0.00000E+000	-1.60187E-002	0.00000E+000	7	...........	0
	495	49.6	-5.13226E-003	9.56457E-007	0.00000E+000	-5.01826E-003	0.00000E+000	7	...........	0
	506	50.7	5.89672E-003	9.92133E-007	0.00000E+000	5.98219E-003	0.00000E+000	7	...........	0
	517	51.8	1.68917E-002	9.63459E-007	0.00000E+000	1.69826E-002	0.00000E+000	7	...........	0
	528	52.9	2.79054E-002	9.03442E-007	0.00000E+000	2.79831E-002	0.00000E+000	7	...........	0
	539	54	3.88963E-002	1.20686E-006	0.00000E+000	3.89835E-002	0.00000E+000	7	...........	0
	550	55.1	4.98873E-002	8.32756E-007	0.00000E+000	4.99840E-002	0.00000E+000	7	...........	0
	561	56.2	6.08582E-002	1.08649E-006	0.00000E+000	6.09844E-002	0.00000E+000	7	...........	0
	572	57.3	7.19092E-002	1.30655E-006	0.00000E+000	7.19849E-002	0.00000E+000	7	...........	0
	583	58.4	8.29302E-002	1.34556E-006	0.00000E+000	8.29853E-002	0.00000E+000	7	...........	0
	594	59.5	9.39011E-002	1.55662E-006	0.00000E+000	9.39858E-002	0.00000E+000	7	...........	0
	605	60.6	1.04892E-001	1.38091E-006	0.00000E+000	1.04986E-001	0.00000E+000	7	...........	0
	616	61.7	1.15853E-001	1.48327E-006	0.00000E+000	1.15987E-001	0.00000E+000	7	...........	0
	627	62.8	1.26884E-001	1.49227E-006	0.00000E+000	1.26987E-001	0.00000E+000	7	...........	0
[...]
	671	67.2	1.70908E-001	1.63298E-006	0.00000E+000	1.70989E-001	0.00000E+000	7	...........	0
	682	68.3	1.81909E-001	1.70766E-006	0.00000E+000	1.81989E-001	0.00000E+000	7	...........	0
	693	69.4	1.92910E-001	1.74667E-006	0.00000E+000	1.92990E-001	0.00000E+000	7	...........	0
	704	70.5	2.03881E-001	1.80869E-006	0.00000E+000	2.03990E-001	0.00000E+000	7	...........	0
	715	71.6	2.14871E-001	1.82436E-006	0.00000E+000	2.14991E-001	0.00000E+000	7	...........	0
	726	72.7	2.25872E-001	1.77635E-006	0.00000E+000	2.25991E-001	0.00000E+000	7	...........	0
	737	73.8	2.36873E-001	1.84470E-006	0.00000E+000	2.36992E-001	0.00000E+000	7	...........	0
	748	74.9	2.47874E-001	1.97274E-006	0.00000E+000	2.47992E-001	0.00000E+000	7	...........	0
	759	76	2.58865E-001	1.97240E-006	0.00000E+000	2.58993E-001	0.00000E+000	7	...........	0
	770	77.1	2.69957E-001	2.11744E-006	0.00000E+000	2.69993E-001	0.00000E+000	7	...........	0
	781	78.2	2.81068E-001	2.05609E-006	0.00000E+000	2.80993E-001	0.00000E+000	7	...........	0
	792	79.3	2.92079E-001	2.14745E-006	0.00000E+000	2.91994E-001	0.00000E+000	7	...........	0
	803	80.4	3.03090E-001	2.16446E-006	0.00000E+000	3.02994E-001	0.00000E+000	7	...........	0
	814	81.5	3.14101E-001	2.18479E-006	0.00000E+000	3.13995E-001	0.00000E+000	7	...........	0
	825	82.6	3.25012E-001	2.32883E-006	0.00000E+000	3.24995E-001	0.00000E+000	7	...........	0
	836	83.7	3.36123E-001	1.93306E-006	0.00000E+000	3.35996E-001	0.00000E+000	7	...........	0
	847	84.8	3.47134E-001	2.34917E-006	0.00000E+000	3.46996E-001	0.00000E+000	7	...........	0
	858	85.9	3.58044E-001	2.36351E-006	0.00000E+000	3.57997E-001	0.00000E+000	7	...........	0
	869	87	3.69156E-001	2.36985E-006	0.00000E+000	3.68997E-001	0.00000E+000	7	...........	0
	880	88.1	3.80167E-001	2.44387E-006	0.00000E+000	3.79997E-001	0.00000E+000	7	...........	0
	891	89.2	3.91077E-001	2.51989E-006	0.00000E+000	3.90998E-001	0.00000E+000	7	...........	0
	902	90.3	4.02088E-001	2.61691E-006	0.00000E+000	4.01998E-001	0.00000E+000	7	...........	0
	913	91.4	4.13199E-001	2.60991E-006	0.00000E+000	4.12999E-001	0.00000E+000	7	...........	0
	924	92.5	4.24110E-001	2.77996E-006	0.00000E+000	4.23999E-001	0.00000E+000	7	...........	0
	935	93.6	4.35121E-001	2.83497E-006	0.00000E+000	4.35000E-001	0.00000E+000	7	...........	0
	946	94.7	4.46132E-001	2.93033E-006	0.00000E+000	4.46000E-001	0.00000E+000	7	...........	0
	957	95.8	4.57243E-001	3.00669E-006	0.00000E+000	4.57001E-001	0.00000E+000	7	...........	0
	968	96.9	4.68154E-001	3.07937E-006	0.00000E+000	4.68001E-001	0.00000E+000	7	...........	0
	979	98	4.79165E-001	3.18207E-006	0.00000E+000	4.79002E-001	0.00000E+000	7	...........	0
	990	99.1	4.90176E-001	3.23208E-006	0.00000E+000	4.90002E-001	0.00000E+000	7	...........	0
	1001	100.2	5.01187E-001	3.21274E-006	0.00000E+000	5.01002E-001	0.00000E+000	7	...........	0
	1012	101.3	5.12198E-001	3.29377E-006	0.00000E+000	5.12003E-001	0.00000E+000	7	...........	0
	1023	102.4	5.23209E-001	3.37846E-006	0.00000E+000	5.23003E-001	0.00000E+000	7	...........	0
	1034	103.5	5.34120E-001	3.40113E-006	0.00000E+000	5.34004E-001	0.00000E+000	7	...........	0
	1045	104.6	5.45231E-001	3.44681E-006	0.00000E+000	5.45004E-001	0.00000E+000	7	...........	0
	1056	105.7	5.56242E-001	3.48849E-006	0.00000E+000	5.56005E-001	0.00000E+000	7	...........	0
	1067	106.8	5.67253E-001	3.49249E-006	0.00000E+000	5.67005E-001	0.00000E+000	7	...........	0
	1078	107.9	5.78164E-001	3.58151E-006	0.00000E+000	5.78006E-001	0.00000E+000	7	...........	0
	1089	109	5.89175E-001	3.61019E-006	0.00000E+000	5.89006E-001	0.00000E+000	7	...........	0
	1100	110.1	6.00186E-001	3.73789E-006	0.00000E+000	6.00006E-001	0.00000E+000	7	...........	0