Folder: DataAnalysis/LSV ZFO (part 15)

File: ZFO_light_reator.DTA
EXPLAIN
TAG	LSV
TITLE	LABEL	Linear Sweep Voltammetry	Test &Identifier
DATE	LABEL	7/5/2024	Date
TIME	LABEL	18:34:43	Time
NOTES	NOTES	1	&Notes...

PSTAT	PSTAT	L3FNano	Potentiostat
VINIT	POTEN	-5.00000E-001	F	&Initial E (V)
VFINAL	POTEN	6.00000E-001	F	&Final E (V)
SCANRATE	QUANT	9.99998E+000	&Scan Rate (mV/s)
STEPSIZE	QUANT	1.00000E+000	St&ep Size (mV)
IMODE	SELECTOR	0	I/E Range &Mode
IRANGE	QUANT	1.00000E+001	&Max Current (mA)
AREA	QUANT	1.00000E+000	Electrode &Area (cm^2)
ELECTRODETYPE	SELECTOR	0	Electrode Type
STRIPPING	TOGGLE	F	Used for Stripping
POLARITY	TOGGLE	F	Signal Polarity
CONDIT	TWOPARAM	F	1.50000E+001	0.00000E+000	Conditionin&g	Time(s)	E(V)
DELAY	TWOPARAM	F	3.00000E+001	0.00000E+000	Init. De&lay	Time(s)	Stab.(mV/s)
EQDELAY	QUANT	5.00000E+000	Equil. &Time (s)
IRCOMP	SELECTOR	0	IRCom&p
PFCOR	QUANT	5.00000E+001	PF Corr. (ohm)
SAMPLINGMODE	SELECTOR	0	Sampling &Mode
EOC	QUANT	0	Open Circuit (V)
PSTATMODEL	IQUANT	48	Pstat Model
PSTATSECTION	LABEL	IFC1000-07082	Pstat Section
PSTATSERIALNO	LABEL	07082	Pstat Serial Number
CTRLMODE	IQUANT	1	Control Mode
IESTAB	IQUANT	2	I/E Stability
CASPEED	IQUANT	2	Control Amp Speed
CONVENTION	IQUANT	1	Current Convention
ICHRANGE	IQUANT	2	Ich Range
ICHRANGEMODE	TOGGLE	F	Ich Auto Range
ICHOFFSETENABLE	TOGGLE	F	Ich Offset Enable
ICHOFFSET	QUANT	0	Ich Offset (V)
ICHFILTER	IQUANT	3	Ich Filter
VCHRANGE	IQUANT	2	Vch Range
VCHRANGEMODE	TOGGLE	T	Vch Auto Range
VCHOFFSETENABLE	TOGGLE	F	Vch Offset Enable
VCHOFFSET	QUANT	0	Vch Offset (V)
VCHFILTER	IQUANT	3	Vch Filter
IERANGELOWERLIMIT	IQUANT	4	I/E Range Lower Limit
IERANGEMODE	TOGGLE	T	I/E AutoRange
IERANGE	IQUANT	11	I/E Range
ACHSELECT	IQUANT	4	Ach Select
CABLEID	IQUANT	14	Cable ID
DCCALDATE	LABEL	7/3/2024	DC Calibration Date
ACCALDATE	LABEL	7/3/2024	AC Calibration Date
FRAMEWORKVERSION	QUANT	6.24	Framework Version
INSTRUMENTVERSION	LABEL	3.28	Instrument Version
CURVE	TABLE	1101
	Pt	T	Vf	Im	Vu	Sig	Ach	IERange	Over	Cycle
	#	s	V vs. Ref.	A	V	V	V	#	bits	#
	0	0.1	-5.00110E-001	1.93704E-006	0.00000E+000	-4.99988E-001	0.00000E+000	11	...........	0
	11	1.2	-4.89099E-001	-1.54323E-006	0.00000E+000	-4.88988E-001	0.00000E+000	7	...........	0
	22	2.3	-4.78088E-001	-1.00542E-006	0.00000E+000	-4.77988E-001	0.00000E+000	7	...........	0
	33	3.4	-4.66977E-001	-8.89384E-007	0.00000E+000	-4.66987E-001	0.00000E+000	7	...........	0
	44	4.5	-4.56166E-001	-5.51624E-007	0.00000E+000	-4.55987E-001	0.00000E+000	7	...........	0
	55	5.6	-4.45155E-001	-2.57210E-007	0.00000E+000	-4.44986E-001	0.00000E+000	7	...........	0
	66	6.7	-4.34044E-001	-2.15865E-007	0.00000E+000	-4.33986E-001	0.00000E+000	7	...........	0
	77	7.8	-4.23033E-001	-1.51514E-007	0.00000E+000	-4.22985E-001	0.00000E+000	7	...........	0
	88	8.9	-4.12022E-001	-1.22506E-007	0.00000E+000	-4.11985E-001	0.00000E+000	7	...........	0
	99	10	-4.01011E-001	-4.47384E-009	0.00000E+000	-4.00984E-001	0.00000E+000	7	...........	0
	110	11.1	-3.90000E-001	1.35231E-007	0.00000E+000	-3.89984E-001	0.00000E+000	7	...........	0
	121	12.2	-3.79089E-001	3.58292E-007	0.00000E+000	-3.78984E-001	0.00000E+000	7	...........	0
	132	13.3	-3.67978E-001	3.39621E-007	0.00000E+000	-3.67983E-001	0.00000E+000	7	...........	0
	143	14.4	-3.56967E-001	9.12191E-008	0.00000E+000	-3.56983E-001	0.00000E+000	7	...........	0
	154	15.5	-3.46156E-001	-6.88249E-008	0.00000E+000	-3.45982E-001	0.00000E+000	7	...........	0
	165	16.6	-3.35045E-001	1.10558E-007	0.00000E+000	-3.34982E-001	0.00000E+000	7	...........	0
	176	17.7	-3.24034E-001	1.71241E-007	0.00000E+000	-3.23981E-001	0.00000E+000	7	...........	0
	187	18.8	-3.13023E-001	2.76603E-007	0.00000E+000	-3.12981E-001	0.00000E+000	7	...........	0
	198	19.9	-3.02013E-001	2.60599E-007	0.00000E+000	-3.01980E-001	0.00000E+000	7	...........	0
	209	21	-2.91002E-001	4.96997E-007	0.00000E+000	-2.90980E-001	0.00000E+000	7	...........	0
	220	22.1	-2.80091E-001	5.47344E-007	0.00000E+000	-2.79979E-001	0.00000E+000	7	...........	0
	231	23.2	-2.68980E-001	4.98664E-007	0.00000E+000	-2.68979E-001	0.00000E+000	7	...........	0
	242	24.3	-2.58069E-001	3.94969E-007	0.00000E+000	-2.57979E-001	0.00000E+000	7	...........	0
	253	25.4	-2.47058E-001	4.11640E-007	0.00000E+000	-2.46978E-001	0.00000E+000	7	...........	0
	264	26.5	-2.36017E-001	4.73658E-007	0.00000E+000	-2.35978E-001	0.00000E+000	7	...........	0
	275	27.6	-2.25006E-001	5.53013E-007	0.00000E+000	-2.24977E-001	0.00000E+000	7	...........	0
	286	28.7	-2.14005E-001	6.15030E-007	0.00000E+000	-2.13977E-001	0.00000E+000	7	...........	0
	297	29.8	-2.03014E-001	8.21420E-007	0.00000E+000	-2.02976E-001	0.00000E+000	7	...........	0
	308	30.9	-1.91983E-001	8.76101E-007	0.00000E+000	-1.91976E-001	0.00000E+000	7	...........	0
	319	32	-1.80993E-001	9.07777E-007	0.00000E+000	-1.80975E-001	0.00000E+000	7	...........	0
	330	33.1	-1.70022E-001	9.21780E-007	0.00000E+000	-1.69975E-001	0.00000E+000	7	...........	0
	341	34.2	-1.59041E-001	9.80463E-007	0.00000E+000	-1.59025E-001	0.00000E+000	7	...........	0
	352	35.3	-1.48100E-001	8.91106E-007	0.00000E+000	-1.48024E-001	0.00000E+000	7	...........	0
	363	36.4	-1.37049E-001	9.66793E-007	0.00000E+000	-1.37024E-001	0.00000E+000	7	...........	0
	374	37.5	-1.26048E-001	1.01781E-006	0.00000E+000	-1.26023E-001	0.00000E+000	7	...........	0
	385	38.6	-1.15067E-001	9.85798E-007	0.00000E+000	-1.15023E-001	0.00000E+000	7	...........	0
	396	39.7	-1.04036E-001	1.03281E-006	0.00000E+000	-1.04022E-001	0.00000E+000	7	...........	0
	407	40.8	-9.30150E-002	1.07049E-006	0.00000E+000	-9.30219E-002	0.00000E+000	7	...........	0
	418	41.9	-8.20841E-002	1.03615E-006	0.00000E+000	-8.20214E-002	0.00000E+000	7	...........	0
	429	43	-7.10531E-002	1.07349E-006	0.00000E+000	-7.10210E-002	0.00000E+000	7	...........	0
	440	44.1	-6.00822E-002	1.09883E-006	0.00000E+000	-6.00205E-002	0.00000E+000	7	...........	0
	451	45.2	-4.90912E-002	1.10483E-006	0.00000E+000	-4.90201E-002	0.00000E+000	7	...........	0
	462	46.3	-3.80503E-002	1.27188E-006	0.00000E+000	-3.80196E-002	0.00000E+000	7	...........	0
	473	47.4	-2.70893E-002	1.25154E-006	0.00000E+000	-2.70192E-002	0.00000E+000	7	...........	0
	484	48.5	-1.60571E-002	1.22153E-006	0.00000E+000	-1.60187E-002	0.00000E+000	7	...........	0
	495	49.6	-5.07420E-003	1.30389E-006	0.00000E+000	-5.01826E-003	0.00000E+000	7	...........	0
	506	50.7	5.91574E-003	1.36690E-006	0.00000E+000	5.98219E-003	0.00000E+000	7	...........	0
	517	51.8	1.69407E-002	1.30689E-006	0.00000E+000	1.69826E-002	0.00000E+000	7	...........	0
	528	52.9	2.79354E-002	1.42792E-006	0.00000E+000	2.79831E-002	0.00000E+000	7	...........	0
	539	54	3.89764E-002	1.43959E-006	0.00000E+000	3.89835E-002	0.00000E+000	7	...........	0
	550	55.1	4.99373E-002	1.44092E-006	0.00000E+000	4.99840E-002	0.00000E+000	7	...........	0
	561	56.2	6.09082E-002	1.47293E-006	0.00000E+000	6.09844E-002	0.00000E+000	7	...........	0
	572	57.3	7.19392E-002	1.47126E-006	0.00000E+000	7.19849E-002	0.00000E+000	7	...........	0
	583	58.4	8.29001E-002	1.41058E-006	0.00000E+000	8.29853E-002	0.00000E+000	7	...........	0
	594	59.5	9.39011E-002	1.39058E-006	0.00000E+000	9.39858E-002	0.00000E+000	7	...........	0
	605	60.6	1.04892E-001	1.47827E-006	0.00000E+000	1.04986E-001	0.00000E+000	7	...........	0
	616	61.7	1.15903E-001	1.50961E-006	0.00000E+000	1.15987E-001	0.00000E+000	7	...........	0
	627	62.8	1.26874E-001	1.44759E-006	0.00000E+000	1.26987E-001	0.00000E+000	7	...........	0
[...]
	671	67.2	1.70938E-001	1.83070E-006	0.00000E+000	1.70989E-001	0.00000E+000	7	...........	0
	682	68.3	1.81919E-001	1.92872E-006	0.00000E+000	1.81989E-001	0.00000E+000	7	...........	0
	693	69.4	1.92930E-001	1.93673E-006	0.00000E+000	1.92990E-001	0.00000E+000	7	...........	0
	704	70.5	2.03901E-001	2.13711E-006	0.00000E+000	2.03990E-001	0.00000E+000	7	...........	0
	715	71.6	2.14902E-001	2.00675E-006	0.00000E+000	2.14991E-001	0.00000E+000	7	...........	0
	726	72.7	2.25902E-001	2.11177E-006	0.00000E+000	2.25991E-001	0.00000E+000	7	...........	0
	737	73.8	2.36903E-001	2.22981E-006	0.00000E+000	2.36992E-001	0.00000E+000	7	...........	0
	748	74.9	2.47914E-001	2.16045E-006	0.00000E+000	2.47992E-001	0.00000E+000	7	...........	0
	759	76	2.58855E-001	2.18713E-006	0.00000E+000	2.58993E-001	0.00000E+000	7	...........	0
	770	77.1	2.69957E-001	2.46687E-006	0.00000E+000	2.69993E-001	0.00000E+000	7	...........	0
	781	78.2	2.80968E-001	2.58324E-006	0.00000E+000	2.80993E-001	0.00000E+000	7	...........	0
	792	79.3	2.92079E-001	2.76262E-006	0.00000E+000	2.91994E-001	0.00000E+000	7	...........	0
	803	80.4	3.03090E-001	2.74028E-006	0.00000E+000	3.02994E-001	0.00000E+000	7	...........	0
	814	81.5	3.14101E-001	2.71761E-006	0.00000E+000	3.13995E-001	0.00000E+000	7	...........	0
	825	82.6	3.25012E-001	2.75362E-006	0.00000E+000	3.24995E-001	0.00000E+000	7	...........	0
	836	83.7	3.36123E-001	2.97635E-006	0.00000E+000	3.35996E-001	0.00000E+000	7	...........	0
	847	84.8	3.47034E-001	2.74328E-006	0.00000E+000	3.46996E-001	0.00000E+000	7	...........	0
	858	85.9	3.58145E-001	2.64659E-006	0.00000E+000	3.57997E-001	0.00000E+000	7	...........	0
	869	87	3.69156E-001	2.90333E-006	0.00000E+000	3.68997E-001	0.00000E+000	7	...........	0
	880	88.1	3.80066E-001	3.15839E-006	0.00000E+000	3.79997E-001	0.00000E+000	7	...........	0
	891	89.2	3.91077E-001	3.09371E-006	0.00000E+000	3.90998E-001	0.00000E+000	7	...........	0
	902	90.3	4.02088E-001	3.28976E-006	0.00000E+000	4.01998E-001	0.00000E+000	7	...........	0
	913	91.4	4.13099E-001	3.21341E-006	0.00000E+000	4.12999E-001	0.00000E+000	7	...........	0
	924	92.5	4.24210E-001	3.07771E-006	0.00000E+000	4.23999E-001	0.00000E+000	7	...........	0
	935	93.6	4.35121E-001	3.09371E-006	0.00000E+000	4.35000E-001	0.00000E+000	7	...........	0
	946	94.7	4.46032E-001	3.18974E-006	0.00000E+000	4.46000E-001	0.00000E+000	7	...........	0
	957	95.8	4.57143E-001	3.47648E-006	0.00000E+000	4.57001E-001	0.00000E+000	7	...........	0
	968	96.9	4.68154E-001	3.54884E-006	0.00000E+000	4.68001E-001	0.00000E+000	7	...........	0
	979	98	4.79165E-001	3.57284E-006	0.00000E+000	4.79002E-001	0.00000E+000	7	...........	0
	990	99.1	4.90176E-001	3.59652E-006	0.00000E+000	4.90002E-001	0.00000E+000	7	...........	0
	1001	100.2	5.01187E-001	3.83992E-006	0.00000E+000	5.01002E-001	0.00000E+000	7	...........	0
	1012	101.3	5.12098E-001	3.93961E-006	0.00000E+000	5.12003E-001	0.00000E+000	7	...........	0
	1023	102.4	5.23109E-001	4.11699E-006	0.00000E+000	5.23003E-001	0.00000E+000	7	...........	0
	1034	103.5	5.34120E-001	4.17267E-006	0.00000E+000	5.34004E-001	0.00000E+000	7	...........	0
	1045	104.6	5.45131E-001	4.32638E-006	0.00000E+000	5.45004E-001	0.00000E+000	7	...........	0
	1056	105.7	5.56142E-001	4.45542E-006	0.00000E+000	5.56005E-001	0.00000E+000	7	...........	0
	1067	106.8	5.67253E-001	4.39207E-006	0.00000E+000	5.67005E-001	0.00000E+000	7	...........	0
	1078	107.9	5.78164E-001	4.45642E-006	0.00000E+000	5.78006E-001	0.00000E+000	7	...........	0
	1089	109	5.89175E-001	4.95556E-006	0.00000E+000	5.89006E-001	0.00000E+000	7	...........	0
	1100	110.1	6.00085E-001	5.40101E-006	0.00000E+000	6.00006E-001	0.00000E+000	7	...........	0